Day,Session,Treatment,Subject,Round,SL,Bid,Frequency_Consumption,Size,Time,Quality_Safety,Attention,Typical_SL,Typical_SL_Other,Choose,Minimum_SL,Shopper,Vegan,Significant_Issue,Feeling,Wrong,Consideration,Help_Reduction,Social_Contributes,Promotion,Discard_After,Discard_On,Discard_Smell,Discard_Taste,LD_indication,LD_words,Gender,Age,Education,Income,Marietal_St,Child,Family_Size,Family_Size_Other
1,1,Control,2,1,,4,Two or three times a month,Half gallon (64 fl oz),Within a week,Both,"Yes, always",Greater than 21 days,,Sometimes,10,Yes,No,Strongly agree,Strongly agree,Strongly agree,Somewhat agree,Strongly agree,Strongly disagree,Somewhat agree,Somewhat agree,Somewhat agree,Somewhat agree,Somewhat agree,Somewhat agree,Somewhat agree,Male,38,Master's degree,"$150,000 or more",Domestic/live-in partner,No,2,
1,1,Control,2,2,7,2,Two or three times a month,Half gallon (64 fl oz),Within a week,Both,"Yes, always",Greater than 21 days,,Sometimes,10,Yes,No,Strongly agree,Strongly agree,Strongly agree,Somewhat agree,Strongly agree,Strongly disagree,Somewhat agree,Somewhat agree,Somewhat agree,Somewhat agree,Somewhat agree,Somewhat agree,Somewhat agree,Male,38,Master's degree,"$150,000 or more",Domestic/live-in partner,No,2,
1,1,Control,2,3,1,0.01,Two or three times a month,Half gallon (64 fl oz),Within a week,Both,"Yes, always",Greater than 21 days,,Sometimes,10,Yes,No,Strongly agree,Strongly agree,Strongly agree,Somewhat agree,Strongly agree,Strongly disagree,Somewhat agree,Somewhat agree,Somewhat agree,Somewhat agree,Somewhat agree,Somewhat agree,Somewhat agree,Male,38,Master's degree,"$150,000 or more",Domestic/live-in partner,No,2,
1,1,Control,2,4,3,1,Two or three times a month,Half gallon (64 fl oz),Within a week,Both,"Yes, always",Greater than 21 days,,Sometimes,10,Yes,No,Strongly agree,Strongly agree,Strongly agree,Somewhat agree,Strongly agree,Strongly disagree,Somewhat agree,Somewhat agree,Somewhat agree,Somewhat agree,Somewhat agree,Somewhat agree,Somewhat agree,Male,38,Master's degree,"$150,000 or more",Domestic/live-in partner,No,2,
1,1,Control,2,5,-1,0,Two or three times a month,Half gallon (64 fl oz),Within a week,Both,"Yes, always",Greater than 21 days,,Sometimes,10,Yes,No,Strongly agree,Strongly agree,Strongly agree,Somewhat agree,Strongly agree,Strongly disagree,Somewhat agree,Somewhat agree,Somewhat agree,Somewhat agree,Somewhat agree,Somewhat agree,Somewhat agree,Male,38,Master's degree,"$150,000 or more",Domestic/live-in partner,No,2,
1,1,Control,2,6,5,1.5,Two or three times a month,Half gallon (64 fl oz),Within a week,Both,"Yes, always",Greater than 21 days,,Sometimes,10,Yes,No,Strongly agree,Strongly agree,Strongly agree,Somewhat agree,Strongly agree,Strongly disagree,Somewhat agree,Somewhat agree,Somewhat agree,Somewhat agree,Somewhat agree,Somewhat agree,Somewhat agree,Male,38,Master's degree,"$150,000 or more",Domestic/live-in partner,No,2,
1,1,Control,2,7,14,3,Two or three times a month,Half gallon (64 fl oz),Within a week,Both,"Yes, always",Greater than 21 days,,Sometimes,10,Yes,No,Strongly agree,Strongly agree,Strongly agree,Somewhat agree,Strongly agree,Strongly disagree,Somewhat agree,Somewhat agree,Somewhat agree,Somewhat agree,Somewhat agree,Somewhat agree,Somewhat agree,Male,38,Master's degree,"$150,000 or more",Domestic/live-in partner,No,2,
1,1,Control,2,8,0,0,Two or three times a month,Half gallon (64 fl oz),Within a week,Both,"Yes, always",Greater than 21 days,,Sometimes,10,Yes,No,Strongly agree,Strongly agree,Strongly agree,Somewhat agree,Strongly agree,Strongly disagree,Somewhat agree,Somewhat agree,Somewhat agree,Somewhat agree,Somewhat agree,Somewhat agree,Somewhat agree,Male,38,Master's degree,"$150,000 or more",Domestic/live-in partner,No,2,
1,1,Control,2,9,19,3.25,Two or three times a month,Half gallon (64 fl oz),Within a week,Both,"Yes, always",Greater than 21 days,,Sometimes,10,Yes,No,Strongly agree,Strongly agree,Strongly agree,Somewhat agree,Strongly agree,Strongly disagree,Somewhat agree,Somewhat agree,Somewhat agree,Somewhat agree,Somewhat agree,Somewhat agree,Somewhat agree,Male,38,Master's degree,"$150,000 or more",Domestic/live-in partner,No,2,
1,1,Control,2,10,10,2.5,Two or three times a month,Half gallon (64 fl oz),Within a week,Both,"Yes, always",Greater than 21 days,,Sometimes,10,Yes,No,Strongly agree,Strongly agree,Strongly agree,Somewhat agree,Strongly agree,Strongly disagree,Somewhat agree,Somewhat agree,Somewhat agree,Somewhat agree,Somewhat agree,Somewhat agree,Somewhat agree,Male,38,Master's degree,"$150,000 or more",Domestic/live-in partner,No,2,
1,1,Control,3,1,,2.95,Two or three times a month,1 quart (32 fl oz),More than a week,Food safety,Sometimes,14-21 days,,Sometimes,9,No,No,Strongly agree,Strongly agree,Strongly agree,Somewhat agree,Somewhat agree,Strongly disagree,Somewhat agree,Somewhat agree,Somewhat disagree,Strongly agree,Somewhat agree,Somewhat disagree,Neither agree nor disagree,Female,32,Master's degree,"$150,000 or more",Domestic/live-in partner,No,3,
1,1,Control,3,2,7,2.5,Two or three times a month,1 quart (32 fl oz),More than a week,Food safety,Sometimes,14-21 days,,Sometimes,9,No,No,Strongly agree,Strongly agree,Strongly agree,Somewhat agree,Somewhat agree,Strongly disagree,Somewhat agree,Somewhat agree,Somewhat disagree,Strongly agree,Somewhat agree,Somewhat disagree,Neither agree nor disagree,Female,32,Master's degree,"$150,000 or more",Domestic/live-in partner,No,3,
1,1,Control,3,3,1,0.99,Two or three times a month,1 quart (32 fl oz),More than a week,Food safety,Sometimes,14-21 days,,Sometimes,9,No,No,Strongly agree,Strongly agree,Strongly agree,Somewhat agree,Somewhat agree,Strongly disagree,Somewhat agree,Somewhat agree,Somewhat disagree,Strongly agree,Somewhat agree,Somewhat disagree,Neither agree nor disagree,Female,32,Master's degree,"$150,000 or more",Domestic/live-in partner,No,3,
1,1,Control,3,4,3,1.5,Two or three times a month,1 quart (32 fl oz),More than a week,Food safety,Sometimes,14-21 days,,Sometimes,9,No,No,Strongly agree,Strongly agree,Strongly agree,Somewhat agree,Somewhat agree,Strongly disagree,Somewhat agree,Somewhat agree,Somewhat disagree,Strongly agree,Somewhat agree,Somewhat disagree,Neither agree nor disagree,Female,32,Master's degree,"$150,000 or more",Domestic/live-in partner,No,3,
1,1,Control,3,5,-1,0,Two or three times a month,1 quart (32 fl oz),More than a week,Food safety,Sometimes,14-21 days,,Sometimes,9,No,No,Strongly agree,Strongly agree,Strongly agree,Somewhat agree,Somewhat agree,Strongly disagree,Somewhat agree,Somewhat agree,Somewhat disagree,Strongly agree,Somewhat agree,Somewhat disagree,Neither agree nor disagree,Female,32,Master's degree,"$150,000 or more",Domestic/live-in partner,No,3,
1,1,Control,3,6,5,1.6,Two or three times a month,1 quart (32 fl oz),More than a week,Food safety,Sometimes,14-21 days,,Sometimes,9,No,No,Strongly agree,Strongly agree,Strongly agree,Somewhat agree,Somewhat agree,Strongly disagree,Somewhat agree,Somewhat agree,Somewhat disagree,Strongly agree,Somewhat agree,Somewhat disagree,Neither agree nor disagree,Female,32,Master's degree,"$150,000 or more",Domestic/live-in partner,No,3,
1,1,Control,3,7,14,2.95,Two or three times a month,1 quart (32 fl oz),More than a week,Food safety,Sometimes,14-21 days,,Sometimes,9,No,No,Strongly agree,Strongly agree,Strongly agree,Somewhat agree,Somewhat agree,Strongly disagree,Somewhat agree,Somewhat agree,Somewhat disagree,Strongly agree,Somewhat agree,Somewhat disagree,Neither agree nor disagree,Female,32,Master's degree,"$150,000 or more",Domestic/live-in partner,No,3,
1,1,Control,3,8,0,0.25,Two or three times a month,1 quart (32 fl oz),More than a week,Food safety,Sometimes,14-21 days,,Sometimes,9,No,No,Strongly agree,Strongly agree,Strongly agree,Somewhat agree,Somewhat agree,Strongly disagree,Somewhat agree,Somewhat agree,Somewhat disagree,Strongly agree,Somewhat agree,Somewhat disagree,Neither agree nor disagree,Female,32,Master's degree,"$150,000 or more",Domestic/live-in partner,No,3,
1,1,Control,3,9,19,2.95,Two or three times a month,1 quart (32 fl oz),More than a week,Food safety,Sometimes,14-21 days,,Sometimes,9,No,No,Strongly agree,Strongly agree,Strongly agree,Somewhat agree,Somewhat agree,Strongly disagree,Somewhat agree,Somewhat agree,Somewhat disagree,Strongly agree,Somewhat agree,Somewhat disagree,Neither agree nor disagree,Female,32,Master's degree,"$150,000 or more",Domestic/live-in partner,No,3,
1,1,Control,3,10,10,2.95,Two or three times a month,1 quart (32 fl oz),More than a week,Food safety,Sometimes,14-21 days,,Sometimes,9,No,No,Strongly agree,Strongly agree,Strongly agree,Somewhat agree,Somewhat agree,Strongly disagree,Somewhat agree,Somewhat agree,Somewhat disagree,Strongly agree,Somewhat agree,Somewhat disagree,Neither agree nor disagree,Female,32,Master's degree,"$150,000 or more",Domestic/live-in partner,No,3,
1,1,Control,4,1,,1.99,Once a month,Half gallon (64 fl oz),More than a week,Food quality,"Yes, always",14-21 days,,Sometimes,5,Yes,No,Neither agree nor disagree,Somewhat disagree,Somewhat agree,Somewhat disagree,Somewhat disagree,Strongly disagree,Neither agree nor disagree,Strongly disagree,Strongly disagree,Strongly agree,Strongly agree,Somewhat agree,Neither agree nor disagree,Female,41,Bachelor's degree in college (4-year),"$75,000-$99,999",Married,No,2,
1,1,Control,4,2,7,1.99,Once a month,Half gallon (64 fl oz),More than a week,Food quality,"Yes, always",14-21 days,,Sometimes,5,Yes,No,Neither agree nor disagree,Somewhat disagree,Somewhat agree,Somewhat disagree,Somewhat disagree,Strongly disagree,Neither agree nor disagree,Strongly disagree,Strongly disagree,Strongly agree,Strongly agree,Somewhat agree,Neither agree nor disagree,Female,41,Bachelor's degree in college (4-year),"$75,000-$99,999",Married,No,2,
1,1,Control,4,3,1,1,Once a month,Half gallon (64 fl oz),More than a week,Food quality,"Yes, always",14-21 days,,Sometimes,5,Yes,No,Neither agree nor disagree,Somewhat disagree,Somewhat agree,Somewhat disagree,Somewhat disagree,Strongly disagree,Neither agree nor disagree,Strongly disagree,Strongly disagree,Strongly agree,Strongly agree,Somewhat agree,Neither agree nor disagree,Female,41,Bachelor's degree in college (4-year),"$75,000-$99,999",Married,No,2,
1,1,Control,4,4,3,1.99,Once a month,Half gallon (64 fl oz),More than a week,Food quality,"Yes, always",14-21 days,,Sometimes,5,Yes,No,Neither agree nor disagree,Somewhat disagree,Somewhat agree,Somewhat disagree,Somewhat disagree,Strongly disagree,Neither agree nor disagree,Strongly disagree,Strongly disagree,Strongly agree,Strongly agree,Somewhat agree,Neither agree nor disagree,Female,41,Bachelor's degree in college (4-year),"$75,000-$99,999",Married,No,2,
1,1,Control,4,5,-1,0,Once a month,Half gallon (64 fl oz),More than a week,Food quality,"Yes, always",14-21 days,,Sometimes,5,Yes,No,Neither agree nor disagree,Somewhat disagree,Somewhat agree,Somewhat disagree,Somewhat disagree,Strongly disagree,Neither agree nor disagree,Strongly disagree,Strongly disagree,Strongly agree,Strongly agree,Somewhat agree,Neither agree nor disagree,Female,41,Bachelor's degree in college (4-year),"$75,000-$99,999",Married,No,2,
1,1,Control,4,6,5,1.99,Once a month,Half gallon (64 fl oz),More than a week,Food quality,"Yes, always",14-21 days,,Sometimes,5,Yes,No,Neither agree nor disagree,Somewhat disagree,Somewhat agree,Somewhat disagree,Somewhat disagree,Strongly disagree,Neither agree nor disagree,Strongly disagree,Strongly disagree,Strongly agree,Strongly agree,Somewhat agree,Neither agree nor disagree,Female,41,Bachelor's degree in college (4-year),"$75,000-$99,999",Married,No,2,
1,1,Control,4,7,14,2.99,Once a month,Half gallon (64 fl oz),More than a week,Food quality,"Yes, always",14-21 days,,Sometimes,5,Yes,No,Neither agree nor disagree,Somewhat disagree,Somewhat agree,Somewhat disagree,Somewhat disagree,Strongly disagree,Neither agree nor disagree,Strongly disagree,Strongly disagree,Strongly agree,Strongly agree,Somewhat agree,Neither agree nor disagree,Female,41,Bachelor's degree in college (4-year),"$75,000-$99,999",Married,No,2,
1,1,Control,4,8,0,0.5,Once a month,Half gallon (64 fl oz),More than a week,Food quality,"Yes, always",14-21 days,,Sometimes,5,Yes,No,Neither agree nor disagree,Somewhat disagree,Somewhat agree,Somewhat disagree,Somewhat disagree,Strongly disagree,Neither agree nor disagree,Strongly disagree,Strongly disagree,Strongly agree,Strongly agree,Somewhat agree,Neither agree nor disagree,Female,41,Bachelor's degree in college (4-year),"$75,000-$99,999",Married,No,2,
1,1,Control,4,9,19,2.99,Once a month,Half gallon (64 fl oz),More than a week,Food quality,"Yes, always",14-21 days,,Sometimes,5,Yes,No,Neither agree nor disagree,Somewhat disagree,Somewhat agree,Somewhat disagree,Somewhat disagree,Strongly disagree,Neither agree nor disagree,Strongly disagree,Strongly disagree,Strongly agree,Strongly agree,Somewhat agree,Neither agree nor disagree,Female,41,Bachelor's degree in college (4-year),"$75,000-$99,999",Married,No,2,
1,1,Control,4,10,10,1.99,Once a month,Half gallon (64 fl oz),More than a week,Food quality,"Yes, always",14-21 days,,Sometimes,5,Yes,No,Neither agree nor disagree,Somewhat disagree,Somewhat agree,Somewhat disagree,Somewhat disagree,Strongly disagree,Neither agree nor disagree,Strongly disagree,Strongly disagree,Strongly agree,Strongly agree,Somewhat agree,Neither agree nor disagree,Female,41,Bachelor's degree in college (4-year),"$75,000-$99,999",Married,No,2,
1,1,Control,5,1,,1.5,Once a week,Half gallon (64 fl oz),Within a week,Food quality,"Yes, always",Other (please specify):,seems to vary depending on the type of milk,"Yes, always",6,Yes,No,Neither agree nor disagree,Somewhat disagree,Neither agree nor disagree,Strongly disagree,Neither agree nor disagree,Strongly disagree,Strongly disagree,Neither agree nor disagree,Neither agree nor disagree,Somewhat agree,Neither agree nor disagree,Somewhat agree,Somewhat agree,Male,60,Master's degree,"$75,000-$99,999",Married,No,3,
1,1,Control,5,2,7,1.5,Once a week,Half gallon (64 fl oz),Within a week,Food quality,"Yes, always",Other (please specify):,seems to vary depending on the type of milk,"Yes, always",6,Yes,No,Neither agree nor disagree,Somewhat disagree,Neither agree nor disagree,Strongly disagree,Neither agree nor disagree,Strongly disagree,Strongly disagree,Neither agree nor disagree,Neither agree nor disagree,Somewhat agree,Neither agree nor disagree,Somewhat agree,Somewhat agree,Male,60,Master's degree,"$75,000-$99,999",Married,No,3,
1,1,Control,5,3,1,0,Once a week,Half gallon (64 fl oz),Within a week,Food quality,"Yes, always",Other (please specify):,seems to vary depending on the type of milk,"Yes, always",6,Yes,No,Neither agree nor disagree,Somewhat disagree,Neither agree nor disagree,Strongly disagree,Neither agree nor disagree,Strongly disagree,Strongly disagree,Neither agree nor disagree,Neither agree nor disagree,Somewhat agree,Neither agree nor disagree,Somewhat agree,Somewhat agree,Male,60,Master's degree,"$75,000-$99,999",Married,No,3,
1,1,Control,5,4,3,0,Once a week,Half gallon (64 fl oz),Within a week,Food quality,"Yes, always",Other (please specify):,seems to vary depending on the type of milk,"Yes, always",6,Yes,No,Neither agree nor disagree,Somewhat disagree,Neither agree nor disagree,Strongly disagree,Neither agree nor disagree,Strongly disagree,Strongly disagree,Neither agree nor disagree,Neither agree nor disagree,Somewhat agree,Neither agree nor disagree,Somewhat agree,Somewhat agree,Male,60,Master's degree,"$75,000-$99,999",Married,No,3,
1,1,Control,5,5,-1,0,Once a week,Half gallon (64 fl oz),Within a week,Food quality,"Yes, always",Other (please specify):,seems to vary depending on the type of milk,"Yes, always",6,Yes,No,Neither agree nor disagree,Somewhat disagree,Neither agree nor disagree,Strongly disagree,Neither agree nor disagree,Strongly disagree,Strongly disagree,Neither agree nor disagree,Neither agree nor disagree,Somewhat agree,Neither agree nor disagree,Somewhat agree,Somewhat agree,Male,60,Master's degree,"$75,000-$99,999",Married,No,3,
1,1,Control,5,6,5,1,Once a week,Half gallon (64 fl oz),Within a week,Food quality,"Yes, always",Other (please specify):,seems to vary depending on the type of milk,"Yes, always",6,Yes,No,Neither agree nor disagree,Somewhat disagree,Neither agree nor disagree,Strongly disagree,Neither agree nor disagree,Strongly disagree,Strongly disagree,Neither agree nor disagree,Neither agree nor disagree,Somewhat agree,Neither agree nor disagree,Somewhat agree,Somewhat agree,Male,60,Master's degree,"$75,000-$99,999",Married,No,3,
1,1,Control,5,7,14,1.5,Once a week,Half gallon (64 fl oz),Within a week,Food quality,"Yes, always",Other (please specify):,seems to vary depending on the type of milk,"Yes, always",6,Yes,No,Neither agree nor disagree,Somewhat disagree,Neither agree nor disagree,Strongly disagree,Neither agree nor disagree,Strongly disagree,Strongly disagree,Neither agree nor disagree,Neither agree nor disagree,Somewhat agree,Neither agree nor disagree,Somewhat agree,Somewhat agree,Male,60,Master's degree,"$75,000-$99,999",Married,No,3,
1,1,Control,5,8,0,0,Once a week,Half gallon (64 fl oz),Within a week,Food quality,"Yes, always",Other (please specify):,seems to vary depending on the type of milk,"Yes, always",6,Yes,No,Neither agree nor disagree,Somewhat disagree,Neither agree nor disagree,Strongly disagree,Neither agree nor disagree,Strongly disagree,Strongly disagree,Neither agree nor disagree,Neither agree nor disagree,Somewhat agree,Neither agree nor disagree,Somewhat agree,Somewhat agree,Male,60,Master's degree,"$75,000-$99,999",Married,No,3,
1,1,Control,5,9,19,1.5,Once a week,Half gallon (64 fl oz),Within a week,Food quality,"Yes, always",Other (please specify):,seems to vary depending on the type of milk,"Yes, always",6,Yes,No,Neither agree nor disagree,Somewhat disagree,Neither agree nor disagree,Strongly disagree,Neither agree nor disagree,Strongly disagree,Strongly disagree,Neither agree nor disagree,Neither agree nor disagree,Somewhat agree,Neither agree nor disagree,Somewhat agree,Somewhat agree,Male,60,Master's degree,"$75,000-$99,999",Married,No,3,
1,1,Control,5,10,10,1.5,Once a week,Half gallon (64 fl oz),Within a week,Food quality,"Yes, always",Other (please specify):,seems to vary depending on the type of milk,"Yes, always",6,Yes,No,Neither agree nor disagree,Somewhat disagree,Neither agree nor disagree,Strongly disagree,Neither agree nor disagree,Strongly disagree,Strongly disagree,Neither agree nor disagree,Neither agree nor disagree,Somewhat agree,Neither agree nor disagree,Somewhat agree,Somewhat agree,Male,60,Master's degree,"$75,000-$99,999",Married,No,3,
1,1,Control,6,1,,1.5,Once a week,1 gallon (128 fl oz),More than a week,Both,"Yes, always",10-14 days,,"Yes, always",10,No,No,Somewhat agree,Strongly agree,Somewhat agree,Strongly agree,Strongly agree,Neither agree nor disagree,Neither agree nor disagree,Somewhat agree,Somewhat disagree,Strongly agree,Strongly agree,Somewhat agree,Somewhat agree,Male,54,Master's degree,Prefer not to say,Married,Yes,3,
1,1,Control,6,2,7,1,Once a week,1 gallon (128 fl oz),More than a week,Both,"Yes, always",10-14 days,,"Yes, always",10,No,No,Somewhat agree,Strongly agree,Somewhat agree,Strongly agree,Strongly agree,Neither agree nor disagree,Neither agree nor disagree,Somewhat agree,Somewhat disagree,Strongly agree,Strongly agree,Somewhat agree,Somewhat agree,Male,54,Master's degree,Prefer not to say,Married,Yes,3,
1,1,Control,6,3,1,0.99,Once a week,1 gallon (128 fl oz),More than a week,Both,"Yes, always",10-14 days,,"Yes, always",10,No,No,Somewhat agree,Strongly agree,Somewhat agree,Strongly agree,Strongly agree,Neither agree nor disagree,Neither agree nor disagree,Somewhat agree,Somewhat disagree,Strongly agree,Strongly agree,Somewhat agree,Somewhat agree,Male,54,Master's degree,Prefer not to say,Married,Yes,3,
1,1,Control,6,4,3,0.99,Once a week,1 gallon (128 fl oz),More than a week,Both,"Yes, always",10-14 days,,"Yes, always",10,No,No,Somewhat agree,Strongly agree,Somewhat agree,Strongly agree,Strongly agree,Neither agree nor disagree,Neither agree nor disagree,Somewhat agree,Somewhat disagree,Strongly agree,Strongly agree,Somewhat agree,Somewhat agree,Male,54,Master's degree,Prefer not to say,Married,Yes,3,
1,1,Control,6,5,-1,0.75,Once a week,1 gallon (128 fl oz),More than a week,Both,"Yes, always",10-14 days,,"Yes, always",10,No,No,Somewhat agree,Strongly agree,Somewhat agree,Strongly agree,Strongly agree,Neither agree nor disagree,Neither agree nor disagree,Somewhat agree,Somewhat disagree,Strongly agree,Strongly agree,Somewhat agree,Somewhat agree,Male,54,Master's degree,Prefer not to say,Married,Yes,3,
1,1,Control,6,6,5,0.99,Once a week,1 gallon (128 fl oz),More than a week,Both,"Yes, always",10-14 days,,"Yes, always",10,No,No,Somewhat agree,Strongly agree,Somewhat agree,Strongly agree,Strongly agree,Neither agree nor disagree,Neither agree nor disagree,Somewhat agree,Somewhat disagree,Strongly agree,Strongly agree,Somewhat agree,Somewhat agree,Male,54,Master's degree,Prefer not to say,Married,Yes,3,
1,1,Control,6,7,14,1.5,Once a week,1 gallon (128 fl oz),More than a week,Both,"Yes, always",10-14 days,,"Yes, always",10,No,No,Somewhat agree,Strongly agree,Somewhat agree,Strongly agree,Strongly agree,Neither agree nor disagree,Neither agree nor disagree,Somewhat agree,Somewhat disagree,Strongly agree,Strongly agree,Somewhat agree,Somewhat agree,Male,54,Master's degree,Prefer not to say,Married,Yes,3,
1,1,Control,6,8,0,0.75,Once a week,1 gallon (128 fl oz),More than a week,Both,"Yes, always",10-14 days,,"Yes, always",10,No,No,Somewhat agree,Strongly agree,Somewhat agree,Strongly agree,Strongly agree,Neither agree nor disagree,Neither agree nor disagree,Somewhat agree,Somewhat disagree,Strongly agree,Strongly agree,Somewhat agree,Somewhat agree,Male,54,Master's degree,Prefer not to say,Married,Yes,3,
1,1,Control,6,9,19,1.75,Once a week,1 gallon (128 fl oz),More than a week,Both,"Yes, always",10-14 days,,"Yes, always",10,No,No,Somewhat agree,Strongly agree,Somewhat agree,Strongly agree,Strongly agree,Neither agree nor disagree,Neither agree nor disagree,Somewhat agree,Somewhat disagree,Strongly agree,Strongly agree,Somewhat agree,Somewhat agree,Male,54,Master's degree,Prefer not to say,Married,Yes,3,
1,1,Control,6,10,10,1,Once a week,1 gallon (128 fl oz),More than a week,Both,"Yes, always",10-14 days,,"Yes, always",10,No,No,Somewhat agree,Strongly agree,Somewhat agree,Strongly agree,Strongly agree,Neither agree nor disagree,Neither agree nor disagree,Somewhat agree,Somewhat disagree,Strongly agree,Strongly agree,Somewhat agree,Somewhat agree,Male,54,Master's degree,Prefer not to say,Married,Yes,3,
1,1,Control,7,1,,5,A few times a week,Half gallon (64 fl oz),3-5 days,Both,Sometimes,7-10 days,,Prefer not to say,4,Yes,No,Strongly agree,Strongly agree,Strongly agree,Strongly agree,Strongly agree,Strongly disagree,Neither agree nor disagree,Somewhat disagree,Somewhat disagree,Strongly agree,Strongly agree,Somewhat agree,Strongly agree,Male,34,Bachelor's degree in college (4-year),"Less than $25,000","Single (never married, no domestic/live-in partner)",No,2,
1,1,Control,7,2,7,1.75,A few times a week,Half gallon (64 fl oz),3-5 days,Both,Sometimes,7-10 days,,Prefer not to say,4,Yes,No,Strongly agree,Strongly agree,Strongly agree,Strongly agree,Strongly agree,Strongly disagree,Neither agree nor disagree,Somewhat disagree,Somewhat disagree,Strongly agree,Strongly agree,Somewhat agree,Strongly agree,Male,34,Bachelor's degree in college (4-year),"Less than $25,000","Single (never married, no domestic/live-in partner)",No,2,
1,1,Control,7,3,1,3.5,A few times a week,Half gallon (64 fl oz),3-5 days,Both,Sometimes,7-10 days,,Prefer not to say,4,Yes,No,Strongly agree,Strongly agree,Strongly agree,Strongly agree,Strongly agree,Strongly disagree,Neither agree nor disagree,Somewhat disagree,Somewhat disagree,Strongly agree,Strongly agree,Somewhat agree,Strongly agree,Male,34,Bachelor's degree in college (4-year),"Less than $25,000","Single (never married, no domestic/live-in partner)",No,2,
1,1,Control,7,4,3,3.5,A few times a week,Half gallon (64 fl oz),3-5 days,Both,Sometimes,7-10 days,,Prefer not to say,4,Yes,No,Strongly agree,Strongly agree,Strongly agree,Strongly agree,Strongly agree,Strongly disagree,Neither agree nor disagree,Somewhat disagree,Somewhat disagree,Strongly agree,Strongly agree,Somewhat agree,Strongly agree,Male,34,Bachelor's degree in college (4-year),"Less than $25,000","Single (never married, no domestic/live-in partner)",No,2,
1,1,Control,7,5,-1,1,A few times a week,Half gallon (64 fl oz),3-5 days,Both,Sometimes,7-10 days,,Prefer not to say,4,Yes,No,Strongly agree,Strongly agree,Strongly agree,Strongly agree,Strongly agree,Strongly disagree,Neither agree nor disagree,Somewhat disagree,Somewhat disagree,Strongly agree,Strongly agree,Somewhat agree,Strongly agree,Male,34,Bachelor's degree in college (4-year),"Less than $25,000","Single (never married, no domestic/live-in partner)",No,2,
1,1,Control,7,6,5,1,A few times a week,Half gallon (64 fl oz),3-5 days,Both,Sometimes,7-10 days,,Prefer not to say,4,Yes,No,Strongly agree,Strongly agree,Strongly agree,Strongly agree,Strongly agree,Strongly disagree,Neither agree nor disagree,Somewhat disagree,Somewhat disagree,Strongly agree,Strongly agree,Somewhat agree,Strongly agree,Male,34,Bachelor's degree in college (4-year),"Less than $25,000","Single (never married, no domestic/live-in partner)",No,2,
1,1,Control,7,7,14,1,A few times a week,Half gallon (64 fl oz),3-5 days,Both,Sometimes,7-10 days,,Prefer not to say,4,Yes,No,Strongly agree,Strongly agree,Strongly agree,Strongly agree,Strongly agree,Strongly disagree,Neither agree nor disagree,Somewhat disagree,Somewhat disagree,Strongly agree,Strongly agree,Somewhat agree,Strongly agree,Male,34,Bachelor's degree in college (4-year),"Less than $25,000","Single (never married, no domestic/live-in partner)",No,2,
1,1,Control,7,8,0,0,A few times a week,Half gallon (64 fl oz),3-5 days,Both,Sometimes,7-10 days,,Prefer not to say,4,Yes,No,Strongly agree,Strongly agree,Strongly agree,Strongly agree,Strongly agree,Strongly disagree,Neither agree nor disagree,Somewhat disagree,Somewhat disagree,Strongly agree,Strongly agree,Somewhat agree,Strongly agree,Male,34,Bachelor's degree in college (4-year),"Less than $25,000","Single (never married, no domestic/live-in partner)",No,2,
1,1,Control,7,9,19,5,A few times a week,Half gallon (64 fl oz),3-5 days,Both,Sometimes,7-10 days,,Prefer not to say,4,Yes,No,Strongly agree,Strongly agree,Strongly agree,Strongly agree,Strongly agree,Strongly disagree,Neither agree nor disagree,Somewhat disagree,Somewhat disagree,Strongly agree,Strongly agree,Somewhat agree,Strongly agree,Male,34,Bachelor's degree in college (4-year),"Less than $25,000","Single (never married, no domestic/live-in partner)",No,2,
1,1,Control,7,10,10,0,A few times a week,Half gallon (64 fl oz),3-5 days,Both,Sometimes,7-10 days,,Prefer not to say,4,Yes,No,Strongly agree,Strongly agree,Strongly agree,Strongly agree,Strongly agree,Strongly disagree,Neither agree nor disagree,Somewhat disagree,Somewhat disagree,Strongly agree,Strongly agree,Somewhat agree,Strongly agree,Male,34,Bachelor's degree in college (4-year),"Less than $25,000","Single (never married, no domestic/live-in partner)",No,2,
1,1,Control,9,1,,3.5,Two or three times a month,Half gallon (64 fl oz),More than a week,Both,Sometimes,Greater than 21 days,,Sometimes,6,Yes,No,Neither agree nor disagree,Neither agree nor disagree,Somewhat agree,Somewhat disagree,Neither agree nor disagree,Somewhat disagree,Neither agree nor disagree,Somewhat disagree,Somewhat disagree,Strongly agree,Strongly agree,Somewhat agree,Somewhat agree,Female,57,Bachelor's degree in college (4-year),Prefer not to say,Married,No,2,
1,1,Control,9,2,7,0,Two or three times a month,Half gallon (64 fl oz),More than a week,Both,Sometimes,Greater than 21 days,,Sometimes,6,Yes,No,Neither agree nor disagree,Neither agree nor disagree,Somewhat agree,Somewhat disagree,Neither agree nor disagree,Somewhat disagree,Neither agree nor disagree,Somewhat disagree,Somewhat disagree,Strongly agree,Strongly agree,Somewhat agree,Somewhat agree,Female,57,Bachelor's degree in college (4-year),Prefer not to say,Married,No,2,
1,1,Control,9,3,1,0,Two or three times a month,Half gallon (64 fl oz),More than a week,Both,Sometimes,Greater than 21 days,,Sometimes,6,Yes,No,Neither agree nor disagree,Neither agree nor disagree,Somewhat agree,Somewhat disagree,Neither agree nor disagree,Somewhat disagree,Neither agree nor disagree,Somewhat disagree,Somewhat disagree,Strongly agree,Strongly agree,Somewhat agree,Somewhat agree,Female,57,Bachelor's degree in college (4-year),Prefer not to say,Married,No,2,
1,1,Control,9,4,3,0,Two or three times a month,Half gallon (64 fl oz),More than a week,Both,Sometimes,Greater than 21 days,,Sometimes,6,Yes,No,Neither agree nor disagree,Neither agree nor disagree,Somewhat agree,Somewhat disagree,Neither agree nor disagree,Somewhat disagree,Neither agree nor disagree,Somewhat disagree,Somewhat disagree,Strongly agree,Strongly agree,Somewhat agree,Somewhat agree,Female,57,Bachelor's degree in college (4-year),Prefer not to say,Married,No,2,
1,1,Control,9,5,-1,3.5,Two or three times a month,Half gallon (64 fl oz),More than a week,Both,Sometimes,Greater than 21 days,,Sometimes,6,Yes,No,Neither agree nor disagree,Neither agree nor disagree,Somewhat agree,Somewhat disagree,Neither agree nor disagree,Somewhat disagree,Neither agree nor disagree,Somewhat disagree,Somewhat disagree,Strongly agree,Strongly agree,Somewhat agree,Somewhat agree,Female,57,Bachelor's degree in college (4-year),Prefer not to say,Married,No,2,
1,1,Control,9,6,5,2,Two or three times a month,Half gallon (64 fl oz),More than a week,Both,Sometimes,Greater than 21 days,,Sometimes,6,Yes,No,Neither agree nor disagree,Neither agree nor disagree,Somewhat agree,Somewhat disagree,Neither agree nor disagree,Somewhat disagree,Neither agree nor disagree,Somewhat disagree,Somewhat disagree,Strongly agree,Strongly agree,Somewhat agree,Somewhat agree,Female,57,Bachelor's degree in college (4-year),Prefer not to say,Married,No,2,
1,1,Control,9,7,14,0,Two or three times a month,Half gallon (64 fl oz),More than a week,Both,Sometimes,Greater than 21 days,,Sometimes,6,Yes,No,Neither agree nor disagree,Neither agree nor disagree,Somewhat agree,Somewhat disagree,Neither agree nor disagree,Somewhat disagree,Neither agree nor disagree,Somewhat disagree,Somewhat disagree,Strongly agree,Strongly agree,Somewhat agree,Somewhat agree,Female,57,Bachelor's degree in college (4-year),Prefer not to say,Married,No,2,
1,1,Control,9,8,0,3.5,Two or three times a month,Half gallon (64 fl oz),More than a week,Both,Sometimes,Greater than 21 days,,Sometimes,6,Yes,No,Neither agree nor disagree,Neither agree nor disagree,Somewhat agree,Somewhat disagree,Neither agree nor disagree,Somewhat disagree,Neither agree nor disagree,Somewhat disagree,Somewhat disagree,Strongly agree,Strongly agree,Somewhat agree,Somewhat agree,Female,57,Bachelor's degree in college (4-year),Prefer not to say,Married,No,2,
1,1,Control,9,9,19,0,Two or three times a month,Half gallon (64 fl oz),More than a week,Both,Sometimes,Greater than 21 days,,Sometimes,6,Yes,No,Neither agree nor disagree,Neither agree nor disagree,Somewhat agree,Somewhat disagree,Neither agree nor disagree,Somewhat disagree,Neither agree nor disagree,Somewhat disagree,Somewhat disagree,Strongly agree,Strongly agree,Somewhat agree,Somewhat agree,Female,57,Bachelor's degree in college (4-year),Prefer not to say,Married,No,2,
1,1,Control,9,10,10,0,Two or three times a month,Half gallon (64 fl oz),More than a week,Both,Sometimes,Greater than 21 days,,Sometimes,6,Yes,No,Neither agree nor disagree,Neither agree nor disagree,Somewhat agree,Somewhat disagree,Neither agree nor disagree,Somewhat disagree,Neither agree nor disagree,Somewhat disagree,Somewhat disagree,Strongly agree,Strongly agree,Somewhat agree,Somewhat agree,Female,57,Bachelor's degree in college (4-year),Prefer not to say,Married,No,2,
1,1,Control,10,1,,2.5,Two or three times a month,Half gallon (64 fl oz),Within a week,Food quality,"Yes, always",10-14 days,,"Yes, always",7,Yes,No,Neither agree nor disagree,Strongly agree,Strongly agree,Somewhat agree,Strongly agree,Strongly disagree,Somewhat disagree,Somewhat disagree,Somewhat disagree,Strongly agree,Strongly agree,Neither agree nor disagree,Strongly agree,Female,38,Master's degree,"$150,000 or more",Married,No,2,
1,1,Control,10,2,7,1.99,Two or three times a month,Half gallon (64 fl oz),Within a week,Food quality,"Yes, always",10-14 days,,"Yes, always",7,Yes,No,Neither agree nor disagree,Strongly agree,Strongly agree,Somewhat agree,Strongly agree,Strongly disagree,Somewhat disagree,Somewhat disagree,Somewhat disagree,Strongly agree,Strongly agree,Neither agree nor disagree,Strongly agree,Female,38,Master's degree,"$150,000 or more",Married,No,2,
1,1,Control,10,3,1,0.5,Two or three times a month,Half gallon (64 fl oz),Within a week,Food quality,"Yes, always",10-14 days,,"Yes, always",7,Yes,No,Neither agree nor disagree,Strongly agree,Strongly agree,Somewhat agree,Strongly agree,Strongly disagree,Somewhat disagree,Somewhat disagree,Somewhat disagree,Strongly agree,Strongly agree,Neither agree nor disagree,Strongly agree,Female,38,Master's degree,"$150,000 or more",Married,No,2,
1,1,Control,10,4,3,0.75,Two or three times a month,Half gallon (64 fl oz),Within a week,Food quality,"Yes, always",10-14 days,,"Yes, always",7,Yes,No,Neither agree nor disagree,Strongly agree,Strongly agree,Somewhat agree,Strongly agree,Strongly disagree,Somewhat disagree,Somewhat disagree,Somewhat disagree,Strongly agree,Strongly agree,Neither agree nor disagree,Strongly agree,Female,38,Master's degree,"$150,000 or more",Married,No,2,
1,1,Control,10,5,-1,0,Two or three times a month,Half gallon (64 fl oz),Within a week,Food quality,"Yes, always",10-14 days,,"Yes, always",7,Yes,No,Neither agree nor disagree,Strongly agree,Strongly agree,Somewhat agree,Strongly agree,Strongly disagree,Somewhat disagree,Somewhat disagree,Somewhat disagree,Strongly agree,Strongly agree,Neither agree nor disagree,Strongly agree,Female,38,Master's degree,"$150,000 or more",Married,No,2,
1,1,Control,10,6,5,1,Two or three times a month,Half gallon (64 fl oz),Within a week,Food quality,"Yes, always",10-14 days,,"Yes, always",7,Yes,No,Neither agree nor disagree,Strongly agree,Strongly agree,Somewhat agree,Strongly agree,Strongly disagree,Somewhat disagree,Somewhat disagree,Somewhat disagree,Strongly agree,Strongly agree,Neither agree nor disagree,Strongly agree,Female,38,Master's degree,"$150,000 or more",Married,No,2,
1,1,Control,10,7,14,2.5,Two or three times a month,Half gallon (64 fl oz),Within a week,Food quality,"Yes, always",10-14 days,,"Yes, always",7,Yes,No,Neither agree nor disagree,Strongly agree,Strongly agree,Somewhat agree,Strongly agree,Strongly disagree,Somewhat disagree,Somewhat disagree,Somewhat disagree,Strongly agree,Strongly agree,Neither agree nor disagree,Strongly agree,Female,38,Master's degree,"$150,000 or more",Married,No,2,
1,1,Control,10,8,0,0.25,Two or three times a month,Half gallon (64 fl oz),Within a week,Food quality,"Yes, always",10-14 days,,"Yes, always",7,Yes,No,Neither agree nor disagree,Strongly agree,Strongly agree,Somewhat agree,Strongly agree,Strongly disagree,Somewhat disagree,Somewhat disagree,Somewhat disagree,Strongly agree,Strongly agree,Neither agree nor disagree,Strongly agree,Female,38,Master's degree,"$150,000 or more",Married,No,2,
1,1,Control,10,9,19,2.5,Two or three times a month,Half gallon (64 fl oz),Within a week,Food quality,"Yes, always",10-14 days,,"Yes, always",7,Yes,No,Neither agree nor disagree,Strongly agree,Strongly agree,Somewhat agree,Strongly agree,Strongly disagree,Somewhat disagree,Somewhat disagree,Somewhat disagree,Strongly agree,Strongly agree,Neither agree nor disagree,Strongly agree,Female,38,Master's degree,"$150,000 or more",Married,No,2,
1,1,Control,10,10,10,2.25,Two or three times a month,Half gallon (64 fl oz),Within a week,Food quality,"Yes, always",10-14 days,,"Yes, always",7,Yes,No,Neither agree nor disagree,Strongly agree,Strongly agree,Somewhat agree,Strongly agree,Strongly disagree,Somewhat disagree,Somewhat disagree,Somewhat disagree,Strongly agree,Strongly agree,Neither agree nor disagree,Strongly agree,Female,38,Master's degree,"$150,000 or more",Married,No,2,
1,1,Control,11,1,,3,Two or three times a month,Half gallon (64 fl oz),More than a week,Food safety,"Yes, always",7-10 days,,"Yes, always",7,Yes,No,Somewhat disagree,Somewhat agree,Somewhat disagree,Somewhat agree,Prefer not to answer,Strongly disagree,Strongly disagree,Strongly agree,Strongly agree,Strongly agree,Strongly disagree,Strongly disagree,Somewhat agree,Female,26,Bachelor's degree in college (4-year),"$75,000-$99,999",Married,No,2,
1,1,Control,11,2,7,3,Two or three times a month,Half gallon (64 fl oz),More than a week,Food safety,"Yes, always",7-10 days,,"Yes, always",7,Yes,No,Somewhat disagree,Somewhat agree,Somewhat disagree,Somewhat agree,Prefer not to answer,Strongly disagree,Strongly disagree,Strongly agree,Strongly agree,Strongly agree,Strongly disagree,Strongly disagree,Somewhat agree,Female,26,Bachelor's degree in college (4-year),"$75,000-$99,999",Married,No,2,
1,1,Control,11,3,1,0.25,Two or three times a month,Half gallon (64 fl oz),More than a week,Food safety,"Yes, always",7-10 days,,"Yes, always",7,Yes,No,Somewhat disagree,Somewhat agree,Somewhat disagree,Somewhat agree,Prefer not to answer,Strongly disagree,Strongly disagree,Strongly agree,Strongly agree,Strongly agree,Strongly disagree,Strongly disagree,Somewhat agree,Female,26,Bachelor's degree in college (4-year),"$75,000-$99,999",Married,No,2,
1,1,Control,11,4,3,1,Two or three times a month,Half gallon (64 fl oz),More than a week,Food safety,"Yes, always",7-10 days,,"Yes, always",7,Yes,No,Somewhat disagree,Somewhat agree,Somewhat disagree,Somewhat agree,Prefer not to answer,Strongly disagree,Strongly disagree,Strongly agree,Strongly agree,Strongly agree,Strongly disagree,Strongly disagree,Somewhat agree,Female,26,Bachelor's degree in college (4-year),"$75,000-$99,999",Married,No,2,
1,1,Control,11,5,-1,0,Two or three times a month,Half gallon (64 fl oz),More than a week,Food safety,"Yes, always",7-10 days,,"Yes, always",7,Yes,No,Somewhat disagree,Somewhat agree,Somewhat disagree,Somewhat agree,Prefer not to answer,Strongly disagree,Strongly disagree,Strongly agree,Strongly agree,Strongly agree,Strongly disagree,Strongly disagree,Somewhat agree,Female,26,Bachelor's degree in college (4-year),"$75,000-$99,999",Married,No,2,
1,1,Control,11,6,5,2,Two or three times a month,Half gallon (64 fl oz),More than a week,Food safety,"Yes, always",7-10 days,,"Yes, always",7,Yes,No,Somewhat disagree,Somewhat agree,Somewhat disagree,Somewhat agree,Prefer not to answer,Strongly disagree,Strongly disagree,Strongly agree,Strongly agree,Strongly agree,Strongly disagree,Strongly disagree,Somewhat agree,Female,26,Bachelor's degree in college (4-year),"$75,000-$99,999",Married,No,2,
1,1,Control,11,7,14,3,Two or three times a month,Half gallon (64 fl oz),More than a week,Food safety,"Yes, always",7-10 days,,"Yes, always",7,Yes,No,Somewhat disagree,Somewhat agree,Somewhat disagree,Somewhat agree,Prefer not to answer,Strongly disagree,Strongly disagree,Strongly agree,Strongly agree,Strongly agree,Strongly disagree,Strongly disagree,Somewhat agree,Female,26,Bachelor's degree in college (4-year),"$75,000-$99,999",Married,No,2,
1,1,Control,11,8,0,0,Two or three times a month,Half gallon (64 fl oz),More than a week,Food safety,"Yes, always",7-10 days,,"Yes, always",7,Yes,No,Somewhat disagree,Somewhat agree,Somewhat disagree,Somewhat agree,Prefer not to answer,Strongly disagree,Strongly disagree,Strongly agree,Strongly agree,Strongly agree,Strongly disagree,Strongly disagree,Somewhat agree,Female,26,Bachelor's degree in college (4-year),"$75,000-$99,999",Married,No,2,
1,1,Control,11,9,19,4,Two or three times a month,Half gallon (64 fl oz),More than a week,Food safety,"Yes, always",7-10 days,,"Yes, always",7,Yes,No,Somewhat disagree,Somewhat agree,Somewhat disagree,Somewhat agree,Prefer not to answer,Strongly disagree,Strongly disagree,Strongly agree,Strongly agree,Strongly agree,Strongly disagree,Strongly disagree,Somewhat agree,Female,26,Bachelor's degree in college (4-year),"$75,000-$99,999",Married,No,2,
1,1,Control,11,10,10,3,Two or three times a month,Half gallon (64 fl oz),More than a week,Food safety,"Yes, always",7-10 days,,"Yes, always",7,Yes,No,Somewhat disagree,Somewhat agree,Somewhat disagree,Somewhat agree,Prefer not to answer,Strongly disagree,Strongly disagree,Strongly agree,Strongly agree,Strongly agree,Strongly disagree,Strongly disagree,Somewhat agree,Female,26,Bachelor's degree in college (4-year),"$75,000-$99,999",Married,No,2,
1,1,Control,12,1,,0.99,A few times a week,1 gallon (128 fl oz),Within 3 days,Both,"Yes, always",10-14 days,,"Yes, always",7,Yes,No,Somewhat disagree,Strongly agree,Neither agree nor disagree,Somewhat agree,Somewhat agree,Strongly disagree,Strongly disagree,Strongly agree,Somewhat agree,Somewhat agree,Strongly disagree,Neither agree nor disagree,Somewhat agree,Female,47,Bachelor's degree in college (4-year),Prefer not to say,Married,Yes,4,
1,1,Control,12,2,7,0.99,A few times a week,1 gallon (128 fl oz),Within 3 days,Both,"Yes, always",10-14 days,,"Yes, always",7,Yes,No,Somewhat disagree,Strongly agree,Neither agree nor disagree,Somewhat agree,Somewhat agree,Strongly disagree,Strongly disagree,Strongly agree,Somewhat agree,Somewhat agree,Strongly disagree,Neither agree nor disagree,Somewhat agree,Female,47,Bachelor's degree in college (4-year),Prefer not to say,Married,Yes,4,
1,1,Control,12,3,1,0,A few times a week,1 gallon (128 fl oz),Within 3 days,Both,"Yes, always",10-14 days,,"Yes, always",7,Yes,No,Somewhat disagree,Strongly agree,Neither agree nor disagree,Somewhat agree,Somewhat agree,Strongly disagree,Strongly disagree,Strongly agree,Somewhat agree,Somewhat agree,Strongly disagree,Neither agree nor disagree,Somewhat agree,Female,47,Bachelor's degree in college (4-year),Prefer not to say,Married,Yes,4,
1,1,Control,12,4,3,0,A few times a week,1 gallon (128 fl oz),Within 3 days,Both,"Yes, always",10-14 days,,"Yes, always",7,Yes,No,Somewhat disagree,Strongly agree,Neither agree nor disagree,Somewhat agree,Somewhat agree,Strongly disagree,Strongly disagree,Strongly agree,Somewhat agree,Somewhat agree,Strongly disagree,Neither agree nor disagree,Somewhat agree,Female,47,Bachelor's degree in college (4-year),Prefer not to say,Married,Yes,4,
1,1,Control,12,5,-1,0,A few times a week,1 gallon (128 fl oz),Within 3 days,Both,"Yes, always",10-14 days,,"Yes, always",7,Yes,No,Somewhat disagree,Strongly agree,Neither agree nor disagree,Somewhat agree,Somewhat agree,Strongly disagree,Strongly disagree,Strongly agree,Somewhat agree,Somewhat agree,Strongly disagree,Neither agree nor disagree,Somewhat agree,Female,47,Bachelor's degree in college (4-year),Prefer not to say,Married,Yes,4,
1,1,Control,12,6,5,0.25,A few times a week,1 gallon (128 fl oz),Within 3 days,Both,"Yes, always",10-14 days,,"Yes, always",7,Yes,No,Somewhat disagree,Strongly agree,Neither agree nor disagree,Somewhat agree,Somewhat agree,Strongly disagree,Strongly disagree,Strongly agree,Somewhat agree,Somewhat agree,Strongly disagree,Neither agree nor disagree,Somewhat agree,Female,47,Bachelor's degree in college (4-year),Prefer not to say,Married,Yes,4,
1,1,Control,12,7,14,1.25,A few times a week,1 gallon (128 fl oz),Within 3 days,Both,"Yes, always",10-14 days,,"Yes, always",7,Yes,No,Somewhat disagree,Strongly agree,Neither agree nor disagree,Somewhat agree,Somewhat agree,Strongly disagree,Strongly disagree,Strongly agree,Somewhat agree,Somewhat agree,Strongly disagree,Neither agree nor disagree,Somewhat agree,Female,47,Bachelor's degree in college (4-year),Prefer not to say,Married,Yes,4,
1,1,Control,12,8,0,0,A few times a week,1 gallon (128 fl oz),Within 3 days,Both,"Yes, always",10-14 days,,"Yes, always",7,Yes,No,Somewhat disagree,Strongly agree,Neither agree nor disagree,Somewhat agree,Somewhat agree,Strongly disagree,Strongly disagree,Strongly agree,Somewhat agree,Somewhat agree,Strongly disagree,Neither agree nor disagree,Somewhat agree,Female,47,Bachelor's degree in college (4-year),Prefer not to say,Married,Yes,4,
1,1,Control,12,9,19,1.25,A few times a week,1 gallon (128 fl oz),Within 3 days,Both,"Yes, always",10-14 days,,"Yes, always",7,Yes,No,Somewhat disagree,Strongly agree,Neither agree nor disagree,Somewhat agree,Somewhat agree,Strongly disagree,Strongly disagree,Strongly agree,Somewhat agree,Somewhat agree,Strongly disagree,Neither agree nor disagree,Somewhat agree,Female,47,Bachelor's degree in college (4-year),Prefer not to say,Married,Yes,4,
1,1,Control,12,10,10,1,A few times a week,1 gallon (128 fl oz),Within 3 days,Both,"Yes, always",10-14 days,,"Yes, always",7,Yes,No,Somewhat disagree,Strongly agree,Neither agree nor disagree,Somewhat agree,Somewhat agree,Strongly disagree,Strongly disagree,Strongly agree,Somewhat agree,Somewhat agree,Strongly disagree,Neither agree nor disagree,Somewhat agree,Female,47,Bachelor's degree in college (4-year),Prefer not to say,Married,Yes,4,
1,1,Control,13,1,,3.75,Two or three times a month,1 gallon (128 fl oz),3-5 days,Both,"Yes, always",7-10 days,,Sometimes,3,No,No,Somewhat agree,Somewhat agree,Somewhat agree,Neither agree nor disagree,Somewhat agree,Somewhat disagree,Strongly agree,Strongly agree,Strongly agree,Strongly agree,Strongly disagree,Strongly disagree,Neither agree nor disagree,Female,37,Master's degree,"$75,000-$99,999",Married,No,2,
1,1,Control,13,2,7,3.75,Two or three times a month,1 gallon (128 fl oz),3-5 days,Both,"Yes, always",7-10 days,,Sometimes,3,No,No,Somewhat agree,Somewhat agree,Somewhat agree,Neither agree nor disagree,Somewhat agree,Somewhat disagree,Strongly agree,Strongly agree,Strongly agree,Strongly agree,Strongly disagree,Strongly disagree,Neither agree nor disagree,Female,37,Master's degree,"$75,000-$99,999",Married,No,2,
1,1,Control,13,3,1,0.75,Two or three times a month,1 gallon (128 fl oz),3-5 days,Both,"Yes, always",7-10 days,,Sometimes,3,No,No,Somewhat agree,Somewhat agree,Somewhat agree,Neither agree nor disagree,Somewhat agree,Somewhat disagree,Strongly agree,Strongly agree,Strongly agree,Strongly agree,Strongly disagree,Strongly disagree,Neither agree nor disagree,Female,37,Master's degree,"$75,000-$99,999",Married,No,2,
1,1,Control,13,4,3,3,Two or three times a month,1 gallon (128 fl oz),3-5 days,Both,"Yes, always",7-10 days,,Sometimes,3,No,No,Somewhat agree,Somewhat agree,Somewhat agree,Neither agree nor disagree,Somewhat agree,Somewhat disagree,Strongly agree,Strongly agree,Strongly agree,Strongly agree,Strongly disagree,Strongly disagree,Neither agree nor disagree,Female,37,Master's degree,"$75,000-$99,999",Married,No,2,
1,1,Control,13,5,-1,0,Two or three times a month,1 gallon (128 fl oz),3-5 days,Both,"Yes, always",7-10 days,,Sometimes,3,No,No,Somewhat agree,Somewhat agree,Somewhat agree,Neither agree nor disagree,Somewhat agree,Somewhat disagree,Strongly agree,Strongly agree,Strongly agree,Strongly agree,Strongly disagree,Strongly disagree,Neither agree nor disagree,Female,37,Master's degree,"$75,000-$99,999",Married,No,2,
1,1,Control,13,6,5,3,Two or three times a month,1 gallon (128 fl oz),3-5 days,Both,"Yes, always",7-10 days,,Sometimes,3,No,No,Somewhat agree,Somewhat agree,Somewhat agree,Neither agree nor disagree,Somewhat agree,Somewhat disagree,Strongly agree,Strongly agree,Strongly agree,Strongly agree,Strongly disagree,Strongly disagree,Neither agree nor disagree,Female,37,Master's degree,"$75,000-$99,999",Married,No,2,
1,1,Control,13,7,14,3.75,Two or three times a month,1 gallon (128 fl oz),3-5 days,Both,"Yes, always",7-10 days,,Sometimes,3,No,No,Somewhat agree,Somewhat agree,Somewhat agree,Neither agree nor disagree,Somewhat agree,Somewhat disagree,Strongly agree,Strongly agree,Strongly agree,Strongly agree,Strongly disagree,Strongly disagree,Neither agree nor disagree,Female,37,Master's degree,"$75,000-$99,999",Married,No,2,
1,1,Control,13,8,0,0,Two or three times a month,1 gallon (128 fl oz),3-5 days,Both,"Yes, always",7-10 days,,Sometimes,3,No,No,Somewhat agree,Somewhat agree,Somewhat agree,Neither agree nor disagree,Somewhat agree,Somewhat disagree,Strongly agree,Strongly agree,Strongly agree,Strongly agree,Strongly disagree,Strongly disagree,Neither agree nor disagree,Female,37,Master's degree,"$75,000-$99,999",Married,No,2,
1,1,Control,13,9,19,4,Two or three times a month,1 gallon (128 fl oz),3-5 days,Both,"Yes, always",7-10 days,,Sometimes,3,No,No,Somewhat agree,Somewhat agree,Somewhat agree,Neither agree nor disagree,Somewhat agree,Somewhat disagree,Strongly agree,Strongly agree,Strongly agree,Strongly agree,Strongly disagree,Strongly disagree,Neither agree nor disagree,Female,37,Master's degree,"$75,000-$99,999",Married,No,2,
1,1,Control,13,10,10,3.75,Two or three times a month,1 gallon (128 fl oz),3-5 days,Both,"Yes, always",7-10 days,,Sometimes,3,No,No,Somewhat agree,Somewhat agree,Somewhat agree,Neither agree nor disagree,Somewhat agree,Somewhat disagree,Strongly agree,Strongly agree,Strongly agree,Strongly agree,Strongly disagree,Strongly disagree,Neither agree nor disagree,Female,37,Master's degree,"$75,000-$99,999",Married,No,2,
1,1,Control,14,1,,2.75,A few times a week,1 gallon (128 fl oz),3-5 days,Both,"Yes, always",10-14 days,,"Yes, always",7,Yes,No,Somewhat agree,Strongly agree,Strongly agree,Somewhat disagree,Strongly agree,Strongly agree,Somewhat agree,Strongly agree,Somewhat agree,Strongly agree,Strongly agree,Somewhat agree,Strongly agree,Male,42,Master's degree,"$100,000-$149,999",Married,Yes,5,
1,1,Control,14,2,7,2.75,A few times a week,1 gallon (128 fl oz),3-5 days,Both,"Yes, always",10-14 days,,"Yes, always",7,Yes,No,Somewhat agree,Strongly agree,Strongly agree,Somewhat disagree,Strongly agree,Strongly agree,Somewhat agree,Strongly agree,Somewhat agree,Strongly agree,Strongly agree,Somewhat agree,Strongly agree,Male,42,Master's degree,"$100,000-$149,999",Married,Yes,5,
1,1,Control,14,3,1,0.5,A few times a week,1 gallon (128 fl oz),3-5 days,Both,"Yes, always",10-14 days,,"Yes, always",7,Yes,No,Somewhat agree,Strongly agree,Strongly agree,Somewhat disagree,Strongly agree,Strongly agree,Somewhat agree,Strongly agree,Somewhat agree,Strongly agree,Strongly agree,Somewhat agree,Strongly agree,Male,42,Master's degree,"$100,000-$149,999",Married,Yes,5,
1,1,Control,14,4,3,1.5,A few times a week,1 gallon (128 fl oz),3-5 days,Both,"Yes, always",10-14 days,,"Yes, always",7,Yes,No,Somewhat agree,Strongly agree,Strongly agree,Somewhat disagree,Strongly agree,Strongly agree,Somewhat agree,Strongly agree,Somewhat agree,Strongly agree,Strongly agree,Somewhat agree,Strongly agree,Male,42,Master's degree,"$100,000-$149,999",Married,Yes,5,
1,1,Control,14,5,-1,0,A few times a week,1 gallon (128 fl oz),3-5 days,Both,"Yes, always",10-14 days,,"Yes, always",7,Yes,No,Somewhat agree,Strongly agree,Strongly agree,Somewhat disagree,Strongly agree,Strongly agree,Somewhat agree,Strongly agree,Somewhat agree,Strongly agree,Strongly agree,Somewhat agree,Strongly agree,Male,42,Master's degree,"$100,000-$149,999",Married,Yes,5,
1,1,Control,14,6,5,2.5,A few times a week,1 gallon (128 fl oz),3-5 days,Both,"Yes, always",10-14 days,,"Yes, always",7,Yes,No,Somewhat agree,Strongly agree,Strongly agree,Somewhat disagree,Strongly agree,Strongly agree,Somewhat agree,Strongly agree,Somewhat agree,Strongly agree,Strongly agree,Somewhat agree,Strongly agree,Male,42,Master's degree,"$100,000-$149,999",Married,Yes,5,
1,1,Control,14,7,14,3,A few times a week,1 gallon (128 fl oz),3-5 days,Both,"Yes, always",10-14 days,,"Yes, always",7,Yes,No,Somewhat agree,Strongly agree,Strongly agree,Somewhat disagree,Strongly agree,Strongly agree,Somewhat agree,Strongly agree,Somewhat agree,Strongly agree,Strongly agree,Somewhat agree,Strongly agree,Male,42,Master's degree,"$100,000-$149,999",Married,Yes,5,
1,1,Control,14,8,0,0.5,A few times a week,1 gallon (128 fl oz),3-5 days,Both,"Yes, always",10-14 days,,"Yes, always",7,Yes,No,Somewhat agree,Strongly agree,Strongly agree,Somewhat disagree,Strongly agree,Strongly agree,Somewhat agree,Strongly agree,Somewhat agree,Strongly agree,Strongly agree,Somewhat agree,Strongly agree,Male,42,Master's degree,"$100,000-$149,999",Married,Yes,5,
1,1,Control,14,9,19,3,A few times a week,1 gallon (128 fl oz),3-5 days,Both,"Yes, always",10-14 days,,"Yes, always",7,Yes,No,Somewhat agree,Strongly agree,Strongly agree,Somewhat disagree,Strongly agree,Strongly agree,Somewhat agree,Strongly agree,Somewhat agree,Strongly agree,Strongly agree,Somewhat agree,Strongly agree,Male,42,Master's degree,"$100,000-$149,999",Married,Yes,5,
1,1,Control,14,10,10,3,A few times a week,1 gallon (128 fl oz),3-5 days,Both,"Yes, always",10-14 days,,"Yes, always",7,Yes,No,Somewhat agree,Strongly agree,Strongly agree,Somewhat disagree,Strongly agree,Strongly agree,Somewhat agree,Strongly agree,Somewhat agree,Strongly agree,Strongly agree,Somewhat agree,Strongly agree,Male,42,Master's degree,"$100,000-$149,999",Married,Yes,5,
1,1,Control,15,1,,1,Less than once a month,1 gallon (128 fl oz),More than a week,Food safety,"Yes, always",7-10 days,,"Yes, always",10,No,No,Somewhat disagree,Strongly agree,Somewhat agree,Strongly agree,Strongly agree,Strongly disagree,Neither agree nor disagree,Strongly agree,Neither agree nor disagree,Prefer not to answer,Somewhat disagree,Strongly disagree,Somewhat disagree,Female,22,Master's degree,"Less than $25,000","Single (never married, no domestic/live-in partner)",No,3,
1,1,Control,15,2,7,0.5,Less than once a month,1 gallon (128 fl oz),More than a week,Food safety,"Yes, always",7-10 days,,"Yes, always",10,No,No,Somewhat disagree,Strongly agree,Somewhat agree,Strongly agree,Strongly agree,Strongly disagree,Neither agree nor disagree,Strongly agree,Neither agree nor disagree,Prefer not to answer,Somewhat disagree,Strongly disagree,Somewhat disagree,Female,22,Master's degree,"Less than $25,000","Single (never married, no domestic/live-in partner)",No,3,
1,1,Control,15,3,1,0,Less than once a month,1 gallon (128 fl oz),More than a week,Food safety,"Yes, always",7-10 days,,"Yes, always",10,No,No,Somewhat disagree,Strongly agree,Somewhat agree,Strongly agree,Strongly agree,Strongly disagree,Neither agree nor disagree,Strongly agree,Neither agree nor disagree,Prefer not to answer,Somewhat disagree,Strongly disagree,Somewhat disagree,Female,22,Master's degree,"Less than $25,000","Single (never married, no domestic/live-in partner)",No,3,
1,1,Control,15,4,3,0,Less than once a month,1 gallon (128 fl oz),More than a week,Food safety,"Yes, always",7-10 days,,"Yes, always",10,No,No,Somewhat disagree,Strongly agree,Somewhat agree,Strongly agree,Strongly agree,Strongly disagree,Neither agree nor disagree,Strongly agree,Neither agree nor disagree,Prefer not to answer,Somewhat disagree,Strongly disagree,Somewhat disagree,Female,22,Master's degree,"Less than $25,000","Single (never married, no domestic/live-in partner)",No,3,
1,1,Control,15,5,-1,0,Less than once a month,1 gallon (128 fl oz),More than a week,Food safety,"Yes, always",7-10 days,,"Yes, always",10,No,No,Somewhat disagree,Strongly agree,Somewhat agree,Strongly agree,Strongly agree,Strongly disagree,Neither agree nor disagree,Strongly agree,Neither agree nor disagree,Prefer not to answer,Somewhat disagree,Strongly disagree,Somewhat disagree,Female,22,Master's degree,"Less than $25,000","Single (never married, no domestic/live-in partner)",No,3,
1,1,Control,15,6,5,0.5,Less than once a month,1 gallon (128 fl oz),More than a week,Food safety,"Yes, always",7-10 days,,"Yes, always",10,No,No,Somewhat disagree,Strongly agree,Somewhat agree,Strongly agree,Strongly agree,Strongly disagree,Neither agree nor disagree,Strongly agree,Neither agree nor disagree,Prefer not to answer,Somewhat disagree,Strongly disagree,Somewhat disagree,Female,22,Master's degree,"Less than $25,000","Single (never married, no domestic/live-in partner)",No,3,
1,1,Control,15,7,14,0.75,Less than once a month,1 gallon (128 fl oz),More than a week,Food safety,"Yes, always",7-10 days,,"Yes, always",10,No,No,Somewhat disagree,Strongly agree,Somewhat agree,Strongly agree,Strongly agree,Strongly disagree,Neither agree nor disagree,Strongly agree,Neither agree nor disagree,Prefer not to answer,Somewhat disagree,Strongly disagree,Somewhat disagree,Female,22,Master's degree,"Less than $25,000","Single (never married, no domestic/live-in partner)",No,3,
1,1,Control,15,8,0,0,Less than once a month,1 gallon (128 fl oz),More than a week,Food safety,"Yes, always",7-10 days,,"Yes, always",10,No,No,Somewhat disagree,Strongly agree,Somewhat agree,Strongly agree,Strongly agree,Strongly disagree,Neither agree nor disagree,Strongly agree,Neither agree nor disagree,Prefer not to answer,Somewhat disagree,Strongly disagree,Somewhat disagree,Female,22,Master's degree,"Less than $25,000","Single (never married, no domestic/live-in partner)",No,3,
1,1,Control,15,9,19,1,Less than once a month,1 gallon (128 fl oz),More than a week,Food safety,"Yes, always",7-10 days,,"Yes, always",10,No,No,Somewhat disagree,Strongly agree,Somewhat agree,Strongly agree,Strongly agree,Strongly disagree,Neither agree nor disagree,Strongly agree,Neither agree nor disagree,Prefer not to answer,Somewhat disagree,Strongly disagree,Somewhat disagree,Female,22,Master's degree,"Less than $25,000","Single (never married, no domestic/live-in partner)",No,3,
1,1,Control,15,10,10,0.75,Less than once a month,1 gallon (128 fl oz),More than a week,Food safety,"Yes, always",7-10 days,,"Yes, always",10,No,No,Somewhat disagree,Strongly agree,Somewhat agree,Strongly agree,Strongly agree,Strongly disagree,Neither agree nor disagree,Strongly agree,Neither agree nor disagree,Prefer not to answer,Somewhat disagree,Strongly disagree,Somewhat disagree,Female,22,Master's degree,"Less than $25,000","Single (never married, no domestic/live-in partner)",No,3,
1,1,Control,16,1,,0.65,Two or three times a month,Half gallon (64 fl oz),More than a week,Both,"Yes, always",14-21 days,,"Yes, always",12,Yes,No,Neither agree nor disagree,Strongly agree,Strongly agree,Strongly agree,Strongly agree,Neither agree nor disagree,Strongly agree,Somewhat agree,Somewhat agree,Strongly agree,Somewhat disagree,Somewhat agree,Neither agree nor disagree,Female,37,Bachelor's degree in college (4-year),"$150,000 or more",Domestic/live-in partner,No,2,
1,1,Control,16,2,7,0.45,Two or three times a month,Half gallon (64 fl oz),More than a week,Both,"Yes, always",14-21 days,,"Yes, always",12,Yes,No,Neither agree nor disagree,Strongly agree,Strongly agree,Strongly agree,Strongly agree,Neither agree nor disagree,Strongly agree,Somewhat agree,Somewhat agree,Strongly agree,Somewhat disagree,Somewhat agree,Neither agree nor disagree,Female,37,Bachelor's degree in college (4-year),"$150,000 or more",Domestic/live-in partner,No,2,
1,1,Control,16,3,1,0.75,Two or three times a month,Half gallon (64 fl oz),More than a week,Both,"Yes, always",14-21 days,,"Yes, always",12,Yes,No,Neither agree nor disagree,Strongly agree,Strongly agree,Strongly agree,Strongly agree,Neither agree nor disagree,Strongly agree,Somewhat agree,Somewhat agree,Strongly agree,Somewhat disagree,Somewhat agree,Neither agree nor disagree,Female,37,Bachelor's degree in college (4-year),"$150,000 or more",Domestic/live-in partner,No,2,
1,1,Control,16,4,3,0.55,Two or three times a month,Half gallon (64 fl oz),More than a week,Both,"Yes, always",14-21 days,,"Yes, always",12,Yes,No,Neither agree nor disagree,Strongly agree,Strongly agree,Strongly agree,Strongly agree,Neither agree nor disagree,Strongly agree,Somewhat agree,Somewhat agree,Strongly agree,Somewhat disagree,Somewhat agree,Neither agree nor disagree,Female,37,Bachelor's degree in college (4-year),"$150,000 or more",Domestic/live-in partner,No,2,
1,1,Control,16,5,-1,0.95,Two or three times a month,Half gallon (64 fl oz),More than a week,Both,"Yes, always",14-21 days,,"Yes, always",12,Yes,No,Neither agree nor disagree,Strongly agree,Strongly agree,Strongly agree,Strongly agree,Neither agree nor disagree,Strongly agree,Somewhat agree,Somewhat agree,Strongly agree,Somewhat disagree,Somewhat agree,Neither agree nor disagree,Female,37,Bachelor's degree in college (4-year),"$150,000 or more",Domestic/live-in partner,No,2,
1,1,Control,16,6,5,0.5,Two or three times a month,Half gallon (64 fl oz),More than a week,Both,"Yes, always",14-21 days,,"Yes, always",12,Yes,No,Neither agree nor disagree,Strongly agree,Strongly agree,Strongly agree,Strongly agree,Neither agree nor disagree,Strongly agree,Somewhat agree,Somewhat agree,Strongly agree,Somewhat disagree,Somewhat agree,Neither agree nor disagree,Female,37,Bachelor's degree in college (4-year),"$150,000 or more",Domestic/live-in partner,No,2,
1,1,Control,16,7,14,0.25,Two or three times a month,Half gallon (64 fl oz),More than a week,Both,"Yes, always",14-21 days,,"Yes, always",12,Yes,No,Neither agree nor disagree,Strongly agree,Strongly agree,Strongly agree,Strongly agree,Neither agree nor disagree,Strongly agree,Somewhat agree,Somewhat agree,Strongly agree,Somewhat disagree,Somewhat agree,Neither agree nor disagree,Female,37,Bachelor's degree in college (4-year),"$150,000 or more",Domestic/live-in partner,No,2,
1,1,Control,16,8,0,0.9,Two or three times a month,Half gallon (64 fl oz),More than a week,Both,"Yes, always",14-21 days,,"Yes, always",12,Yes,No,Neither agree nor disagree,Strongly agree,Strongly agree,Strongly agree,Strongly agree,Neither agree nor disagree,Strongly agree,Somewhat agree,Somewhat agree,Strongly agree,Somewhat disagree,Somewhat agree,Neither agree nor disagree,Female,37,Bachelor's degree in college (4-year),"$150,000 or more",Domestic/live-in partner,No,2,
1,1,Control,16,9,19,0.15,Two or three times a month,Half gallon (64 fl oz),More than a week,Both,"Yes, always",14-21 days,,"Yes, always",12,Yes,No,Neither agree nor disagree,Strongly agree,Strongly agree,Strongly agree,Strongly agree,Neither agree nor disagree,Strongly agree,Somewhat agree,Somewhat agree,Strongly agree,Somewhat disagree,Somewhat agree,Neither agree nor disagree,Female,37,Bachelor's degree in college (4-year),"$150,000 or more",Domestic/live-in partner,No,2,
1,1,Control,16,10,10,0.35,Two or three times a month,Half gallon (64 fl oz),More than a week,Both,"Yes, always",14-21 days,,"Yes, always",12,Yes,No,Neither agree nor disagree,Strongly agree,Strongly agree,Strongly agree,Strongly agree,Neither agree nor disagree,Strongly agree,Somewhat agree,Somewhat agree,Strongly agree,Somewhat disagree,Somewhat agree,Neither agree nor disagree,Female,37,Bachelor's degree in college (4-year),"$150,000 or more",Domestic/live-in partner,No,2,
1,1,Control,17,1,,5.79,Two or three times a month,1 quart (32 fl oz),Within a week,Food safety,"Yes, always",7-10 days,,"Yes, always",7,No,No,Somewhat agree,Strongly agree,Strongly agree,Strongly agree,Strongly agree,Somewhat agree,Somewhat agree,Somewhat agree,Somewhat disagree,Strongly agree,Strongly agree,Somewhat agree,Strongly agree,Female,20,Some college but no degree,Prefer not to say,"Single (never married, no domestic/live-in partner)",No,4,
1,1,Control,17,2,7,5.79,Two or three times a month,1 quart (32 fl oz),Within a week,Food safety,"Yes, always",7-10 days,,"Yes, always",7,No,No,Somewhat agree,Strongly agree,Strongly agree,Strongly agree,Strongly agree,Somewhat agree,Somewhat agree,Somewhat agree,Somewhat disagree,Strongly agree,Strongly agree,Somewhat agree,Strongly agree,Female,20,Some college but no degree,Prefer not to say,"Single (never married, no domestic/live-in partner)",No,4,
1,1,Control,17,3,1,3.49,Two or three times a month,1 quart (32 fl oz),Within a week,Food safety,"Yes, always",7-10 days,,"Yes, always",7,No,No,Somewhat agree,Strongly agree,Strongly agree,Strongly agree,Strongly agree,Somewhat agree,Somewhat agree,Somewhat agree,Somewhat disagree,Strongly agree,Strongly agree,Somewhat agree,Strongly agree,Female,20,Some college but no degree,Prefer not to say,"Single (never married, no domestic/live-in partner)",No,4,
1,1,Control,17,4,3,4.29,Two or three times a month,1 quart (32 fl oz),Within a week,Food safety,"Yes, always",7-10 days,,"Yes, always",7,No,No,Somewhat agree,Strongly agree,Strongly agree,Strongly agree,Strongly agree,Somewhat agree,Somewhat agree,Somewhat agree,Somewhat disagree,Strongly agree,Strongly agree,Somewhat agree,Strongly agree,Female,20,Some college but no degree,Prefer not to say,"Single (never married, no domestic/live-in partner)",No,4,
1,1,Control,17,5,-1,3.29,Two or three times a month,1 quart (32 fl oz),Within a week,Food safety,"Yes, always",7-10 days,,"Yes, always",7,No,No,Somewhat agree,Strongly agree,Strongly agree,Strongly agree,Strongly agree,Somewhat agree,Somewhat agree,Somewhat agree,Somewhat disagree,Strongly agree,Strongly agree,Somewhat agree,Strongly agree,Female,20,Some college but no degree,Prefer not to say,"Single (never married, no domestic/live-in partner)",No,4,
1,1,Control,17,6,5,5.49,Two or three times a month,1 quart (32 fl oz),Within a week,Food safety,"Yes, always",7-10 days,,"Yes, always",7,No,No,Somewhat agree,Strongly agree,Strongly agree,Strongly agree,Strongly agree,Somewhat agree,Somewhat agree,Somewhat agree,Somewhat disagree,Strongly agree,Strongly agree,Somewhat agree,Strongly agree,Female,20,Some college but no degree,Prefer not to say,"Single (never married, no domestic/live-in partner)",No,4,
1,1,Control,17,7,14,5.99,Two or three times a month,1 quart (32 fl oz),Within a week,Food safety,"Yes, always",7-10 days,,"Yes, always",7,No,No,Somewhat agree,Strongly agree,Strongly agree,Strongly agree,Strongly agree,Somewhat agree,Somewhat agree,Somewhat agree,Somewhat disagree,Strongly agree,Strongly agree,Somewhat agree,Strongly agree,Female,20,Some college but no degree,Prefer not to say,"Single (never married, no domestic/live-in partner)",No,4,
1,1,Control,17,8,0,4,Two or three times a month,1 quart (32 fl oz),Within a week,Food safety,"Yes, always",7-10 days,,"Yes, always",7,No,No,Somewhat agree,Strongly agree,Strongly agree,Strongly agree,Strongly agree,Somewhat agree,Somewhat agree,Somewhat agree,Somewhat disagree,Strongly agree,Strongly agree,Somewhat agree,Strongly agree,Female,20,Some college but no degree,Prefer not to say,"Single (never married, no domestic/live-in partner)",No,4,
1,1,Control,17,9,19,6.29,Two or three times a month,1 quart (32 fl oz),Within a week,Food safety,"Yes, always",7-10 days,,"Yes, always",7,No,No,Somewhat agree,Strongly agree,Strongly agree,Strongly agree,Strongly agree,Somewhat agree,Somewhat agree,Somewhat agree,Somewhat disagree,Strongly agree,Strongly agree,Somewhat agree,Strongly agree,Female,20,Some college but no degree,Prefer not to say,"Single (never married, no domestic/live-in partner)",No,4,
1,1,Control,17,10,10,5.89,Two or three times a month,1 quart (32 fl oz),Within a week,Food safety,"Yes, always",7-10 days,,"Yes, always",7,No,No,Somewhat agree,Strongly agree,Strongly agree,Strongly agree,Strongly agree,Somewhat agree,Somewhat agree,Somewhat agree,Somewhat disagree,Strongly agree,Strongly agree,Somewhat agree,Strongly agree,Female,20,Some college but no degree,Prefer not to say,"Single (never married, no domestic/live-in partner)",No,4,
1,1,Control,18,1,,1.99,Once a week,Half gallon (64 fl oz),3-5 days,Both,"Yes, always",7-10 days,,"Yes, always",1,No,No,Somewhat agree,Strongly agree,Strongly agree,Neither agree nor disagree,Somewhat agree,Strongly disagree,Neither agree nor disagree,Somewhat disagree,Strongly disagree,Somewhat agree,Neither agree nor disagree,Neither agree nor disagree,Somewhat agree,Female,36,Bachelor's degree in college (4-year),"$100,000-$149,999",Married,Yes,4,
1,1,Control,18,2,7,1.99,Once a week,Half gallon (64 fl oz),3-5 days,Both,"Yes, always",7-10 days,,"Yes, always",1,No,No,Somewhat agree,Strongly agree,Strongly agree,Neither agree nor disagree,Somewhat agree,Strongly disagree,Neither agree nor disagree,Somewhat disagree,Strongly disagree,Somewhat agree,Neither agree nor disagree,Neither agree nor disagree,Somewhat agree,Female,36,Bachelor's degree in college (4-year),"$100,000-$149,999",Married,Yes,4,
1,1,Control,18,3,1,1.49,Once a week,Half gallon (64 fl oz),3-5 days,Both,"Yes, always",7-10 days,,"Yes, always",1,No,No,Somewhat agree,Strongly agree,Strongly agree,Neither agree nor disagree,Somewhat agree,Strongly disagree,Neither agree nor disagree,Somewhat disagree,Strongly disagree,Somewhat agree,Neither agree nor disagree,Neither agree nor disagree,Somewhat agree,Female,36,Bachelor's degree in college (4-year),"$100,000-$149,999",Married,Yes,4,
1,1,Control,18,4,3,1.99,Once a week,Half gallon (64 fl oz),3-5 days,Both,"Yes, always",7-10 days,,"Yes, always",1,No,No,Somewhat agree,Strongly agree,Strongly agree,Neither agree nor disagree,Somewhat agree,Strongly disagree,Neither agree nor disagree,Somewhat disagree,Strongly disagree,Somewhat agree,Neither agree nor disagree,Neither agree nor disagree,Somewhat agree,Female,36,Bachelor's degree in college (4-year),"$100,000-$149,999",Married,Yes,4,
1,1,Control,18,5,-1,1.1,Once a week,Half gallon (64 fl oz),3-5 days,Both,"Yes, always",7-10 days,,"Yes, always",1,No,No,Somewhat agree,Strongly agree,Strongly agree,Neither agree nor disagree,Somewhat agree,Strongly disagree,Neither agree nor disagree,Somewhat disagree,Strongly disagree,Somewhat agree,Neither agree nor disagree,Neither agree nor disagree,Somewhat agree,Female,36,Bachelor's degree in college (4-year),"$100,000-$149,999",Married,Yes,4,
1,1,Control,18,6,5,1.99,Once a week,Half gallon (64 fl oz),3-5 days,Both,"Yes, always",7-10 days,,"Yes, always",1,No,No,Somewhat agree,Strongly agree,Strongly agree,Neither agree nor disagree,Somewhat agree,Strongly disagree,Neither agree nor disagree,Somewhat disagree,Strongly disagree,Somewhat agree,Neither agree nor disagree,Neither agree nor disagree,Somewhat agree,Female,36,Bachelor's degree in college (4-year),"$100,000-$149,999",Married,Yes,4,
1,1,Control,18,7,14,2.25,Once a week,Half gallon (64 fl oz),3-5 days,Both,"Yes, always",7-10 days,,"Yes, always",1,No,No,Somewhat agree,Strongly agree,Strongly agree,Neither agree nor disagree,Somewhat agree,Strongly disagree,Neither agree nor disagree,Somewhat disagree,Strongly disagree,Somewhat agree,Neither agree nor disagree,Neither agree nor disagree,Somewhat agree,Female,36,Bachelor's degree in college (4-year),"$100,000-$149,999",Married,Yes,4,
1,1,Control,18,8,0,1.1,Once a week,Half gallon (64 fl oz),3-5 days,Both,"Yes, always",7-10 days,,"Yes, always",1,No,No,Somewhat agree,Strongly agree,Strongly agree,Neither agree nor disagree,Somewhat agree,Strongly disagree,Neither agree nor disagree,Somewhat disagree,Strongly disagree,Somewhat agree,Neither agree nor disagree,Neither agree nor disagree,Somewhat agree,Female,36,Bachelor's degree in college (4-year),"$100,000-$149,999",Married,Yes,4,
1,1,Control,18,9,19,2.25,Once a week,Half gallon (64 fl oz),3-5 days,Both,"Yes, always",7-10 days,,"Yes, always",1,No,No,Somewhat agree,Strongly agree,Strongly agree,Neither agree nor disagree,Somewhat agree,Strongly disagree,Neither agree nor disagree,Somewhat disagree,Strongly disagree,Somewhat agree,Neither agree nor disagree,Neither agree nor disagree,Somewhat agree,Female,36,Bachelor's degree in college (4-year),"$100,000-$149,999",Married,Yes,4,
1,1,Control,18,10,10,1.99,Once a week,Half gallon (64 fl oz),3-5 days,Both,"Yes, always",7-10 days,,"Yes, always",1,No,No,Somewhat agree,Strongly agree,Strongly agree,Neither agree nor disagree,Somewhat agree,Strongly disagree,Neither agree nor disagree,Somewhat disagree,Strongly disagree,Somewhat agree,Neither agree nor disagree,Neither agree nor disagree,Somewhat agree,Female,36,Bachelor's degree in college (4-year),"$100,000-$149,999",Married,Yes,4,
1,1,Control,20,1,,4.5,Once a week,1 quart (32 fl oz),Within a week,Food safety,"Yes, always",14-21 days,,"Yes, always",5,Yes,No,Somewhat agree,Strongly agree,Strongly agree,Strongly agree,Strongly agree,Neither agree nor disagree,Somewhat disagree,Somewhat disagree,Strongly disagree,Strongly agree,Strongly agree,Neither agree nor disagree,Strongly agree,Male,76,Master's degree,"$150,000 or more",Domestic/live-in partner,No,2,
1,1,Control,20,2,7,4.5,Once a week,1 quart (32 fl oz),Within a week,Food safety,"Yes, always",14-21 days,,"Yes, always",5,Yes,No,Somewhat agree,Strongly agree,Strongly agree,Strongly agree,Strongly agree,Neither agree nor disagree,Somewhat disagree,Somewhat disagree,Strongly disagree,Strongly agree,Strongly agree,Neither agree nor disagree,Strongly agree,Male,76,Master's degree,"$150,000 or more",Domestic/live-in partner,No,2,
1,1,Control,20,3,1,2.7,Once a week,1 quart (32 fl oz),Within a week,Food safety,"Yes, always",14-21 days,,"Yes, always",5,Yes,No,Somewhat agree,Strongly agree,Strongly agree,Strongly agree,Strongly agree,Neither agree nor disagree,Somewhat disagree,Somewhat disagree,Strongly disagree,Strongly agree,Strongly agree,Neither agree nor disagree,Strongly agree,Male,76,Master's degree,"$150,000 or more",Domestic/live-in partner,No,2,
1,1,Control,20,4,3,2.7,Once a week,1 quart (32 fl oz),Within a week,Food safety,"Yes, always",14-21 days,,"Yes, always",5,Yes,No,Somewhat agree,Strongly agree,Strongly agree,Strongly agree,Strongly agree,Neither agree nor disagree,Somewhat disagree,Somewhat disagree,Strongly disagree,Strongly agree,Strongly agree,Neither agree nor disagree,Strongly agree,Male,76,Master's degree,"$150,000 or more",Domestic/live-in partner,No,2,
1,1,Control,20,5,-1,0,Once a week,1 quart (32 fl oz),Within a week,Food safety,"Yes, always",14-21 days,,"Yes, always",5,Yes,No,Somewhat agree,Strongly agree,Strongly agree,Strongly agree,Strongly agree,Neither agree nor disagree,Somewhat disagree,Somewhat disagree,Strongly disagree,Strongly agree,Strongly agree,Neither agree nor disagree,Strongly agree,Male,76,Master's degree,"$150,000 or more",Domestic/live-in partner,No,2,
1,1,Control,20,6,5,3.6,Once a week,1 quart (32 fl oz),Within a week,Food safety,"Yes, always",14-21 days,,"Yes, always",5,Yes,No,Somewhat agree,Strongly agree,Strongly agree,Strongly agree,Strongly agree,Neither agree nor disagree,Somewhat disagree,Somewhat disagree,Strongly disagree,Strongly agree,Strongly agree,Neither agree nor disagree,Strongly agree,Male,76,Master's degree,"$150,000 or more",Domestic/live-in partner,No,2,
1,1,Control,20,7,14,4.5,Once a week,1 quart (32 fl oz),Within a week,Food safety,"Yes, always",14-21 days,,"Yes, always",5,Yes,No,Somewhat agree,Strongly agree,Strongly agree,Strongly agree,Strongly agree,Neither agree nor disagree,Somewhat disagree,Somewhat disagree,Strongly disagree,Strongly agree,Strongly agree,Neither agree nor disagree,Strongly agree,Male,76,Master's degree,"$150,000 or more",Domestic/live-in partner,No,2,
1,1,Control,20,8,0,0,Once a week,1 quart (32 fl oz),Within a week,Food safety,"Yes, always",14-21 days,,"Yes, always",5,Yes,No,Somewhat agree,Strongly agree,Strongly agree,Strongly agree,Strongly agree,Neither agree nor disagree,Somewhat disagree,Somewhat disagree,Strongly disagree,Strongly agree,Strongly agree,Neither agree nor disagree,Strongly agree,Male,76,Master's degree,"$150,000 or more",Domestic/live-in partner,No,2,
1,1,Control,20,9,19,4.5,Once a week,1 quart (32 fl oz),Within a week,Food safety,"Yes, always",14-21 days,,"Yes, always",5,Yes,No,Somewhat agree,Strongly agree,Strongly agree,Strongly agree,Strongly agree,Neither agree nor disagree,Somewhat disagree,Somewhat disagree,Strongly disagree,Strongly agree,Strongly agree,Neither agree nor disagree,Strongly agree,Male,76,Master's degree,"$150,000 or more",Domestic/live-in partner,No,2,
1,1,Control,20,10,10,4.5,Once a week,1 quart (32 fl oz),Within a week,Food safety,"Yes, always",14-21 days,,"Yes, always",5,Yes,No,Somewhat agree,Strongly agree,Strongly agree,Strongly agree,Strongly agree,Neither agree nor disagree,Somewhat disagree,Somewhat disagree,Strongly disagree,Strongly agree,Strongly agree,Neither agree nor disagree,Strongly agree,Male,76,Master's degree,"$150,000 or more",Domestic/live-in partner,No,2,
1,1,Control,21,1,,4,Two or three times a month,1 gallon (128 fl oz),More than a week,Both,"Yes, always",10-14 days,,"Yes, always",10,Yes,No,Neither agree nor disagree,Strongly agree,Neither agree nor disagree,Somewhat agree,Strongly agree,Strongly disagree,Strongly disagree,Neither agree nor disagree,Neither agree nor disagree,Strongly agree,Strongly agree,Neither agree nor disagree,Strongly agree,Female,48,Some college but no degree,"$100,000-$149,999",Married,No,More than 6,7
1,1,Control,21,2,7,3,Two or three times a month,1 gallon (128 fl oz),More than a week,Both,"Yes, always",10-14 days,,"Yes, always",10,Yes,No,Neither agree nor disagree,Strongly agree,Neither agree nor disagree,Somewhat agree,Strongly agree,Strongly disagree,Strongly disagree,Neither agree nor disagree,Neither agree nor disagree,Strongly agree,Strongly agree,Neither agree nor disagree,Strongly agree,Female,48,Some college but no degree,"$100,000-$149,999",Married,No,More than 6,7
1,1,Control,21,3,1,0.01,Two or three times a month,1 gallon (128 fl oz),More than a week,Both,"Yes, always",10-14 days,,"Yes, always",10,Yes,No,Neither agree nor disagree,Strongly agree,Neither agree nor disagree,Somewhat agree,Strongly agree,Strongly disagree,Strongly disagree,Neither agree nor disagree,Neither agree nor disagree,Strongly agree,Strongly agree,Neither agree nor disagree,Strongly agree,Female,48,Some college but no degree,"$100,000-$149,999",Married,No,More than 6,7
1,1,Control,21,4,3,1.5,Two or three times a month,1 gallon (128 fl oz),More than a week,Both,"Yes, always",10-14 days,,"Yes, always",10,Yes,No,Neither agree nor disagree,Strongly agree,Neither agree nor disagree,Somewhat agree,Strongly agree,Strongly disagree,Strongly disagree,Neither agree nor disagree,Neither agree nor disagree,Strongly agree,Strongly agree,Neither agree nor disagree,Strongly agree,Female,48,Some college but no degree,"$100,000-$149,999",Married,No,More than 6,7
1,1,Control,21,5,-1,0,Two or three times a month,1 gallon (128 fl oz),More than a week,Both,"Yes, always",10-14 days,,"Yes, always",10,Yes,No,Neither agree nor disagree,Strongly agree,Neither agree nor disagree,Somewhat agree,Strongly agree,Strongly disagree,Strongly disagree,Neither agree nor disagree,Neither agree nor disagree,Strongly agree,Strongly agree,Neither agree nor disagree,Strongly agree,Female,48,Some college but no degree,"$100,000-$149,999",Married,No,More than 6,7
1,1,Control,21,6,5,2,Two or three times a month,1 gallon (128 fl oz),More than a week,Both,"Yes, always",10-14 days,,"Yes, always",10,Yes,No,Neither agree nor disagree,Strongly agree,Neither agree nor disagree,Somewhat agree,Strongly agree,Strongly disagree,Strongly disagree,Neither agree nor disagree,Neither agree nor disagree,Strongly agree,Strongly agree,Neither agree nor disagree,Strongly agree,Female,48,Some college but no degree,"$100,000-$149,999",Married,No,More than 6,7
1,1,Control,21,7,14,4.5,Two or three times a month,1 gallon (128 fl oz),More than a week,Both,"Yes, always",10-14 days,,"Yes, always",10,Yes,No,Neither agree nor disagree,Strongly agree,Neither agree nor disagree,Somewhat agree,Strongly agree,Strongly disagree,Strongly disagree,Neither agree nor disagree,Neither agree nor disagree,Strongly agree,Strongly agree,Neither agree nor disagree,Strongly agree,Female,48,Some college but no degree,"$100,000-$149,999",Married,No,More than 6,7
1,1,Control,21,8,0,0,Two or three times a month,1 gallon (128 fl oz),More than a week,Both,"Yes, always",10-14 days,,"Yes, always",10,Yes,No,Neither agree nor disagree,Strongly agree,Neither agree nor disagree,Somewhat agree,Strongly agree,Strongly disagree,Strongly disagree,Neither agree nor disagree,Neither agree nor disagree,Strongly agree,Strongly agree,Neither agree nor disagree,Strongly agree,Female,48,Some college but no degree,"$100,000-$149,999",Married,No,More than 6,7
1,1,Control,21,9,19,5,Two or three times a month,1 gallon (128 fl oz),More than a week,Both,"Yes, always",10-14 days,,"Yes, always",10,Yes,No,Neither agree nor disagree,Strongly agree,Neither agree nor disagree,Somewhat agree,Strongly agree,Strongly disagree,Strongly disagree,Neither agree nor disagree,Neither agree nor disagree,Strongly agree,Strongly agree,Neither agree nor disagree,Strongly agree,Female,48,Some college but no degree,"$100,000-$149,999",Married,No,More than 6,7
1,1,Control,21,10,10,4.5,Two or three times a month,1 gallon (128 fl oz),More than a week,Both,"Yes, always",10-14 days,,"Yes, always",10,Yes,No,Neither agree nor disagree,Strongly agree,Neither agree nor disagree,Somewhat agree,Strongly agree,Strongly disagree,Strongly disagree,Neither agree nor disagree,Neither agree nor disagree,Strongly agree,Strongly agree,Neither agree nor disagree,Strongly agree,Female,48,Some college but no degree,"$100,000-$149,999",Married,No,More than 6,7
1,1,Control,22,1,,0.75,Once a week,Half gallon (64 fl oz),Within a week,Food safety,"Yes, always",7-10 days,,"Yes, always",7,Yes,No,Somewhat agree,Strongly agree,Strongly agree,Strongly agree,Somewhat agree,Somewhat disagree,Somewhat agree,Somewhat agree,Somewhat agree,Strongly agree,Somewhat disagree,Somewhat disagree,Somewhat disagree,Female,46,Some college but no degree,"$75,000-$99,999","Single (never married, no domestic/live-in partner)",No,3,
1,1,Control,22,2,7,1,Once a week,Half gallon (64 fl oz),Within a week,Food safety,"Yes, always",7-10 days,,"Yes, always",7,Yes,No,Somewhat agree,Strongly agree,Strongly agree,Strongly agree,Somewhat agree,Somewhat disagree,Somewhat agree,Somewhat agree,Somewhat agree,Strongly agree,Somewhat disagree,Somewhat disagree,Somewhat disagree,Female,46,Some college but no degree,"$75,000-$99,999","Single (never married, no domestic/live-in partner)",No,3,
1,1,Control,22,3,1,0.75,Once a week,Half gallon (64 fl oz),Within a week,Food safety,"Yes, always",7-10 days,,"Yes, always",7,Yes,No,Somewhat agree,Strongly agree,Strongly agree,Strongly agree,Somewhat agree,Somewhat disagree,Somewhat agree,Somewhat agree,Somewhat agree,Strongly agree,Somewhat disagree,Somewhat disagree,Somewhat disagree,Female,46,Some college but no degree,"$75,000-$99,999","Single (never married, no domestic/live-in partner)",No,3,
1,1,Control,22,4,3,1.05,Once a week,Half gallon (64 fl oz),Within a week,Food safety,"Yes, always",7-10 days,,"Yes, always",7,Yes,No,Somewhat agree,Strongly agree,Strongly agree,Strongly agree,Somewhat agree,Somewhat disagree,Somewhat agree,Somewhat agree,Somewhat agree,Strongly agree,Somewhat disagree,Somewhat disagree,Somewhat disagree,Female,46,Some college but no degree,"$75,000-$99,999","Single (never married, no domestic/live-in partner)",No,3,
1,1,Control,22,5,-1,0.25,Once a week,Half gallon (64 fl oz),Within a week,Food safety,"Yes, always",7-10 days,,"Yes, always",7,Yes,No,Somewhat agree,Strongly agree,Strongly agree,Strongly agree,Somewhat agree,Somewhat disagree,Somewhat agree,Somewhat agree,Somewhat agree,Strongly agree,Somewhat disagree,Somewhat disagree,Somewhat disagree,Female,46,Some college but no degree,"$75,000-$99,999","Single (never married, no domestic/live-in partner)",No,3,
1,1,Control,22,6,5,1.5,Once a week,Half gallon (64 fl oz),Within a week,Food safety,"Yes, always",7-10 days,,"Yes, always",7,Yes,No,Somewhat agree,Strongly agree,Strongly agree,Strongly agree,Somewhat agree,Somewhat disagree,Somewhat agree,Somewhat agree,Somewhat agree,Strongly agree,Somewhat disagree,Somewhat disagree,Somewhat disagree,Female,46,Some college but no degree,"$75,000-$99,999","Single (never married, no domestic/live-in partner)",No,3,
1,1,Control,22,7,14,1.75,Once a week,Half gallon (64 fl oz),Within a week,Food safety,"Yes, always",7-10 days,,"Yes, always",7,Yes,No,Somewhat agree,Strongly agree,Strongly agree,Strongly agree,Somewhat agree,Somewhat disagree,Somewhat agree,Somewhat agree,Somewhat agree,Strongly agree,Somewhat disagree,Somewhat disagree,Somewhat disagree,Female,46,Some college but no degree,"$75,000-$99,999","Single (never married, no domestic/live-in partner)",No,3,
1,1,Control,22,8,0,0.4,Once a week,Half gallon (64 fl oz),Within a week,Food safety,"Yes, always",7-10 days,,"Yes, always",7,Yes,No,Somewhat agree,Strongly agree,Strongly agree,Strongly agree,Somewhat agree,Somewhat disagree,Somewhat agree,Somewhat agree,Somewhat agree,Strongly agree,Somewhat disagree,Somewhat disagree,Somewhat disagree,Female,46,Some college but no degree,"$75,000-$99,999","Single (never married, no domestic/live-in partner)",No,3,
1,1,Control,22,9,19,1.9,Once a week,Half gallon (64 fl oz),Within a week,Food safety,"Yes, always",7-10 days,,"Yes, always",7,Yes,No,Somewhat agree,Strongly agree,Strongly agree,Strongly agree,Somewhat agree,Somewhat disagree,Somewhat agree,Somewhat agree,Somewhat agree,Strongly agree,Somewhat disagree,Somewhat disagree,Somewhat disagree,Female,46,Some college but no degree,"$75,000-$99,999","Single (never married, no domestic/live-in partner)",No,3,
1,1,Control,22,10,10,1.6,Once a week,Half gallon (64 fl oz),Within a week,Food safety,"Yes, always",7-10 days,,"Yes, always",7,Yes,No,Somewhat agree,Strongly agree,Strongly agree,Strongly agree,Somewhat agree,Somewhat disagree,Somewhat agree,Somewhat agree,Somewhat agree,Strongly agree,Somewhat disagree,Somewhat disagree,Somewhat disagree,Female,46,Some college but no degree,"$75,000-$99,999","Single (never married, no domestic/live-in partner)",No,3,
1,1,Control,24,1,,3.5,Once a month,Half gallon (64 fl oz),More than a week,Both,"Yes, always",Greater than 21 days,,"Yes, always",10,Yes,No,Somewhat agree,Strongly agree,Strongly agree,Somewhat agree,Somewhat agree,Neither agree nor disagree,Somewhat disagree,Somewhat disagree,Somewhat disagree,Strongly agree,Somewhat disagree,Neither agree nor disagree,Somewhat agree,Male,41,Bachelor's degree in college (4-year),"$50,000-$74,999",Married,No,2,
1,1,Control,24,2,7,3.5,Once a month,Half gallon (64 fl oz),More than a week,Both,"Yes, always",Greater than 21 days,,"Yes, always",10,Yes,No,Somewhat agree,Strongly agree,Strongly agree,Somewhat agree,Somewhat agree,Neither agree nor disagree,Somewhat disagree,Somewhat disagree,Somewhat disagree,Strongly agree,Somewhat disagree,Neither agree nor disagree,Somewhat agree,Male,41,Bachelor's degree in college (4-year),"$50,000-$74,999",Married,No,2,
1,1,Control,24,3,1,2.5,Once a month,Half gallon (64 fl oz),More than a week,Both,"Yes, always",Greater than 21 days,,"Yes, always",10,Yes,No,Somewhat agree,Strongly agree,Strongly agree,Somewhat agree,Somewhat agree,Neither agree nor disagree,Somewhat disagree,Somewhat disagree,Somewhat disagree,Strongly agree,Somewhat disagree,Neither agree nor disagree,Somewhat agree,Male,41,Bachelor's degree in college (4-year),"$50,000-$74,999",Married,No,2,
1,1,Control,24,4,3,3,Once a month,Half gallon (64 fl oz),More than a week,Both,"Yes, always",Greater than 21 days,,"Yes, always",10,Yes,No,Somewhat agree,Strongly agree,Strongly agree,Somewhat agree,Somewhat agree,Neither agree nor disagree,Somewhat disagree,Somewhat disagree,Somewhat disagree,Strongly agree,Somewhat disagree,Neither agree nor disagree,Somewhat agree,Male,41,Bachelor's degree in college (4-year),"$50,000-$74,999",Married,No,2,
1,1,Control,24,5,-1,1.5,Once a month,Half gallon (64 fl oz),More than a week,Both,"Yes, always",Greater than 21 days,,"Yes, always",10,Yes,No,Somewhat agree,Strongly agree,Strongly agree,Somewhat agree,Somewhat agree,Neither agree nor disagree,Somewhat disagree,Somewhat disagree,Somewhat disagree,Strongly agree,Somewhat disagree,Neither agree nor disagree,Somewhat agree,Male,41,Bachelor's degree in college (4-year),"$50,000-$74,999",Married,No,2,
1,1,Control,24,6,5,3.5,Once a month,Half gallon (64 fl oz),More than a week,Both,"Yes, always",Greater than 21 days,,"Yes, always",10,Yes,No,Somewhat agree,Strongly agree,Strongly agree,Somewhat agree,Somewhat agree,Neither agree nor disagree,Somewhat disagree,Somewhat disagree,Somewhat disagree,Strongly agree,Somewhat disagree,Neither agree nor disagree,Somewhat agree,Male,41,Bachelor's degree in college (4-year),"$50,000-$74,999",Married,No,2,
1,1,Control,24,7,14,5,Once a month,Half gallon (64 fl oz),More than a week,Both,"Yes, always",Greater than 21 days,,"Yes, always",10,Yes,No,Somewhat agree,Strongly agree,Strongly agree,Somewhat agree,Somewhat agree,Neither agree nor disagree,Somewhat disagree,Somewhat disagree,Somewhat disagree,Strongly agree,Somewhat disagree,Neither agree nor disagree,Somewhat agree,Male,41,Bachelor's degree in college (4-year),"$50,000-$74,999",Married,No,2,
1,1,Control,24,8,0,2,Once a month,Half gallon (64 fl oz),More than a week,Both,"Yes, always",Greater than 21 days,,"Yes, always",10,Yes,No,Somewhat agree,Strongly agree,Strongly agree,Somewhat agree,Somewhat agree,Neither agree nor disagree,Somewhat disagree,Somewhat disagree,Somewhat disagree,Strongly agree,Somewhat disagree,Neither agree nor disagree,Somewhat agree,Male,41,Bachelor's degree in college (4-year),"$50,000-$74,999",Married,No,2,
1,1,Control,24,9,19,5,Once a month,Half gallon (64 fl oz),More than a week,Both,"Yes, always",Greater than 21 days,,"Yes, always",10,Yes,No,Somewhat agree,Strongly agree,Strongly agree,Somewhat agree,Somewhat agree,Neither agree nor disagree,Somewhat disagree,Somewhat disagree,Somewhat disagree,Strongly agree,Somewhat disagree,Neither agree nor disagree,Somewhat agree,Male,41,Bachelor's degree in college (4-year),"$50,000-$74,999",Married,No,2,
1,1,Control,24,10,10,5,Once a month,Half gallon (64 fl oz),More than a week,Both,"Yes, always",Greater than 21 days,,"Yes, always",10,Yes,No,Somewhat agree,Strongly agree,Strongly agree,Somewhat agree,Somewhat agree,Neither agree nor disagree,Somewhat disagree,Somewhat disagree,Somewhat disagree,Strongly agree,Somewhat disagree,Neither agree nor disagree,Somewhat agree,Male,41,Bachelor's degree in college (4-year),"$50,000-$74,999",Married,No,2,
1,2,T1,3,1,,1.5,Less than once a month,Half gallon (64 fl oz),More than a week,Both,"Yes, always",10-14 days,,"Yes, always",14,No,No,Somewhat agree,Strongly agree,Neither agree nor disagree,Neither agree nor disagree,Neither agree nor disagree,Somewhat disagree,Somewhat disagree,Somewhat agree,Somewhat disagree,Somewhat agree,Strongly disagree,Somewhat disagree,Strongly disagree,Male,37,Bachelor's degree in college (4-year),"$75,000-$99,999",Married,Yes,3,
1,2,T1,3,2,7,1.5,Less than once a month,Half gallon (64 fl oz),More than a week,Both,"Yes, always",10-14 days,,"Yes, always",14,No,No,Somewhat agree,Strongly agree,Neither agree nor disagree,Neither agree nor disagree,Neither agree nor disagree,Somewhat disagree,Somewhat disagree,Somewhat agree,Somewhat disagree,Somewhat agree,Strongly disagree,Somewhat disagree,Strongly disagree,Male,37,Bachelor's degree in college (4-year),"$75,000-$99,999",Married,Yes,3,
1,2,T1,3,3,1,0,Less than once a month,Half gallon (64 fl oz),More than a week,Both,"Yes, always",10-14 days,,"Yes, always",14,No,No,Somewhat agree,Strongly agree,Neither agree nor disagree,Neither agree nor disagree,Neither agree nor disagree,Somewhat disagree,Somewhat disagree,Somewhat agree,Somewhat disagree,Somewhat agree,Strongly disagree,Somewhat disagree,Strongly disagree,Male,37,Bachelor's degree in college (4-year),"$75,000-$99,999",Married,Yes,3,
1,2,T1,3,4,3,0,Less than once a month,Half gallon (64 fl oz),More than a week,Both,"Yes, always",10-14 days,,"Yes, always",14,No,No,Somewhat agree,Strongly agree,Neither agree nor disagree,Neither agree nor disagree,Neither agree nor disagree,Somewhat disagree,Somewhat disagree,Somewhat agree,Somewhat disagree,Somewhat agree,Strongly disagree,Somewhat disagree,Strongly disagree,Male,37,Bachelor's degree in college (4-year),"$75,000-$99,999",Married,Yes,3,
1,2,T1,3,5,-1,0,Less than once a month,Half gallon (64 fl oz),More than a week,Both,"Yes, always",10-14 days,,"Yes, always",14,No,No,Somewhat agree,Strongly agree,Neither agree nor disagree,Neither agree nor disagree,Neither agree nor disagree,Somewhat disagree,Somewhat disagree,Somewhat agree,Somewhat disagree,Somewhat agree,Strongly disagree,Somewhat disagree,Strongly disagree,Male,37,Bachelor's degree in college (4-year),"$75,000-$99,999",Married,Yes,3,
1,2,T1,3,6,5,0.5,Less than once a month,Half gallon (64 fl oz),More than a week,Both,"Yes, always",10-14 days,,"Yes, always",14,No,No,Somewhat agree,Strongly agree,Neither agree nor disagree,Neither agree nor disagree,Neither agree nor disagree,Somewhat disagree,Somewhat disagree,Somewhat agree,Somewhat disagree,Somewhat agree,Strongly disagree,Somewhat disagree,Strongly disagree,Male,37,Bachelor's degree in college (4-year),"$75,000-$99,999",Married,Yes,3,
1,2,T1,3,7,14,1.5,Less than once a month,Half gallon (64 fl oz),More than a week,Both,"Yes, always",10-14 days,,"Yes, always",14,No,No,Somewhat agree,Strongly agree,Neither agree nor disagree,Neither agree nor disagree,Neither agree nor disagree,Somewhat disagree,Somewhat disagree,Somewhat agree,Somewhat disagree,Somewhat agree,Strongly disagree,Somewhat disagree,Strongly disagree,Male,37,Bachelor's degree in college (4-year),"$75,000-$99,999",Married,Yes,3,
1,2,T1,3,8,0,0,Less than once a month,Half gallon (64 fl oz),More than a week,Both,"Yes, always",10-14 days,,"Yes, always",14,No,No,Somewhat agree,Strongly agree,Neither agree nor disagree,Neither agree nor disagree,Neither agree nor disagree,Somewhat disagree,Somewhat disagree,Somewhat agree,Somewhat disagree,Somewhat agree,Strongly disagree,Somewhat disagree,Strongly disagree,Male,37,Bachelor's degree in college (4-year),"$75,000-$99,999",Married,Yes,3,
1,2,T1,3,9,19,1.5,Less than once a month,Half gallon (64 fl oz),More than a week,Both,"Yes, always",10-14 days,,"Yes, always",14,No,No,Somewhat agree,Strongly agree,Neither agree nor disagree,Neither agree nor disagree,Neither agree nor disagree,Somewhat disagree,Somewhat disagree,Somewhat agree,Somewhat disagree,Somewhat agree,Strongly disagree,Somewhat disagree,Strongly disagree,Male,37,Bachelor's degree in college (4-year),"$75,000-$99,999",Married,Yes,3,
1,2,T1,3,10,10,1.5,Less than once a month,Half gallon (64 fl oz),More than a week,Both,"Yes, always",10-14 days,,"Yes, always",14,No,No,Somewhat agree,Strongly agree,Neither agree nor disagree,Neither agree nor disagree,Neither agree nor disagree,Somewhat disagree,Somewhat disagree,Somewhat agree,Somewhat disagree,Somewhat agree,Strongly disagree,Somewhat disagree,Strongly disagree,Male,37,Bachelor's degree in college (4-year),"$75,000-$99,999",Married,Yes,3,
1,2,T1,4,1,,5,Two or three times a month,Half gallon (64 fl oz),More than a week,Both,"Yes, always",10-14 days,,"Yes, always",0,Yes,No,Strongly disagree,Somewhat agree,Somewhat disagree,Somewhat agree,Somewhat disagree,Strongly agree,Neither agree nor disagree,Strongly disagree,Strongly disagree,Strongly disagree,Strongly disagree,Somewhat agree,Strongly disagree,Female,37,Associate degree in college (2-year),"$25,000-$49,999","Single (never married, no domestic/live-in partner)",No,1,
1,2,T1,4,2,7,5,Two or three times a month,Half gallon (64 fl oz),More than a week,Both,"Yes, always",10-14 days,,"Yes, always",0,Yes,No,Strongly disagree,Somewhat agree,Somewhat disagree,Somewhat agree,Somewhat disagree,Strongly agree,Neither agree nor disagree,Strongly disagree,Strongly disagree,Strongly disagree,Strongly disagree,Somewhat agree,Strongly disagree,Female,37,Associate degree in college (2-year),"$25,000-$49,999","Single (never married, no domestic/live-in partner)",No,1,
1,2,T1,4,3,1,2.5,Two or three times a month,Half gallon (64 fl oz),More than a week,Both,"Yes, always",10-14 days,,"Yes, always",0,Yes,No,Strongly disagree,Somewhat agree,Somewhat disagree,Somewhat agree,Somewhat disagree,Strongly agree,Neither agree nor disagree,Strongly disagree,Strongly disagree,Strongly disagree,Strongly disagree,Somewhat agree,Strongly disagree,Female,37,Associate degree in college (2-year),"$25,000-$49,999","Single (never married, no domestic/live-in partner)",No,1,
1,2,T1,4,4,3,3.25,Two or three times a month,Half gallon (64 fl oz),More than a week,Both,"Yes, always",10-14 days,,"Yes, always",0,Yes,No,Strongly disagree,Somewhat agree,Somewhat disagree,Somewhat agree,Somewhat disagree,Strongly agree,Neither agree nor disagree,Strongly disagree,Strongly disagree,Strongly disagree,Strongly disagree,Somewhat agree,Strongly disagree,Female,37,Associate degree in college (2-year),"$25,000-$49,999","Single (never married, no domestic/live-in partner)",No,1,
1,2,T1,4,5,-1,0,Two or three times a month,Half gallon (64 fl oz),More than a week,Both,"Yes, always",10-14 days,,"Yes, always",0,Yes,No,Strongly disagree,Somewhat agree,Somewhat disagree,Somewhat agree,Somewhat disagree,Strongly agree,Neither agree nor disagree,Strongly disagree,Strongly disagree,Strongly disagree,Strongly disagree,Somewhat agree,Strongly disagree,Female,37,Associate degree in college (2-year),"$25,000-$49,999","Single (never married, no domestic/live-in partner)",No,1,
1,2,T1,4,6,5,4.5,Two or three times a month,Half gallon (64 fl oz),More than a week,Both,"Yes, always",10-14 days,,"Yes, always",0,Yes,No,Strongly disagree,Somewhat agree,Somewhat disagree,Somewhat agree,Somewhat disagree,Strongly agree,Neither agree nor disagree,Strongly disagree,Strongly disagree,Strongly disagree,Strongly disagree,Somewhat agree,Strongly disagree,Female,37,Associate degree in college (2-year),"$25,000-$49,999","Single (never married, no domestic/live-in partner)",No,1,
1,2,T1,4,7,14,5.5,Two or three times a month,Half gallon (64 fl oz),More than a week,Both,"Yes, always",10-14 days,,"Yes, always",0,Yes,No,Strongly disagree,Somewhat agree,Somewhat disagree,Somewhat agree,Somewhat disagree,Strongly agree,Neither agree nor disagree,Strongly disagree,Strongly disagree,Strongly disagree,Strongly disagree,Somewhat agree,Strongly disagree,Female,37,Associate degree in college (2-year),"$25,000-$49,999","Single (never married, no domestic/live-in partner)",No,1,
1,2,T1,4,8,0,0,Two or three times a month,Half gallon (64 fl oz),More than a week,Both,"Yes, always",10-14 days,,"Yes, always",0,Yes,No,Strongly disagree,Somewhat agree,Somewhat disagree,Somewhat agree,Somewhat disagree,Strongly agree,Neither agree nor disagree,Strongly disagree,Strongly disagree,Strongly disagree,Strongly disagree,Somewhat agree,Strongly disagree,Female,37,Associate degree in college (2-year),"$25,000-$49,999","Single (never married, no domestic/live-in partner)",No,1,
1,2,T1,4,9,19,7,Two or three times a month,Half gallon (64 fl oz),More than a week,Both,"Yes, always",10-14 days,,"Yes, always",0,Yes,No,Strongly disagree,Somewhat agree,Somewhat disagree,Somewhat agree,Somewhat disagree,Strongly agree,Neither agree nor disagree,Strongly disagree,Strongly disagree,Strongly disagree,Strongly disagree,Somewhat agree,Strongly disagree,Female,37,Associate degree in college (2-year),"$25,000-$49,999","Single (never married, no domestic/live-in partner)",No,1,
